ACCELEROMETER X (m/s²),ACCELEROMETER Y (m/s²),ACCELEROMETER Z (m/s²),LIGHT,SOUND,LOCATION Latitude : ,LOCATION Longitude : ,LOCATION Altitude ( m),LOCATION Altitude-google ( m),LOCATION Speed ( Kmh),LOCATION Accuracy ( m),LOCATION ORIENTATION (°),Satellites in range,Time,YYYY-MO-DD HH-MI-SS_SSS
5.5857,3.2813,7.4603,175,39.827,42.520325,-83.523384,0,955.5670484,0,84.69678,0,0 / 25,27,2018-07-23 23:06:49:985
5.1404,2.4756,7.7213,167,40.122,42.520325,-83.523384,0,955.5670484,0,84.69678,0,0 / 25,527,2018-07-23 23:06:50:485
3.8726,1.1744,9.3637,151,37.97,42.520325,-83.523384,0,955.5670484,0,84.69678,0,0 / 25,1027,2018-07-23 23:06:50:985
3.2513,-0.1233,9.4834,142,37.271,42.520325,-83.523384,0,955.5670484,0,84.69678,0,0 / 25,1528,2018-07-23 23:06:51:486
2.7485,-0.7326,9.4164,145,31.301,42.520325,-83.523384,0,955.5670484,0,84.69678,0,0 / 25,2027,2018-07-23 23:06:51:985
3.65,-0.6788,8.8418,155,44.284,42.520325,-83.523384,0,955.5670484,0,84.69678,0,0 / 25,2526,2018-07-23 23:06:52:484
3.7397,0.4381,9.2428,162,46.841,42.520325,-83.523384,0,955.5670484,0,84.69678,0,0 / 25,3027,2018-07-23 23:06:52:985
3.2465,-0.6955,9.1602,131,42.744,42.520325,-83.523384,0,955.5670484,0,84.69678,0,0 / 25,3527,2018-07-23 23:06:53:485
3.6212,-0.9373,8.7329,118,37.016,42.520325,-83.523384,0,955.5670484,0,84.69678,0,0 / 25,4027,2018-07-23 23:06:53:985
3.6069,-0.152,9.4439,126,26.532,42.520325,-83.523384,0,955.5670484,0,84.69678,0,0 / 25,4526,2018-07-23 23:06:54:484
3.5207,-0.1544,9.5026,126,27.474,42.520325,-83.523384,0,955.5670484,0,84.69678,0,0 / 25,5027,2018-07-23 23:06:54:985
3.5422,0.6524,9.25,142,25.369,42.520325,-83.523384,0,955.5670484,0,84.69678,0,0 / 25,5527,2018-07-23 23:06:55:485
3.5159,1.1911,9.0537,233,25.777,42.520325,-83.523384,0,955.5670484,0,84.69678,0,0 / 25,6026,2018-07-23 23:06:55:984
3.9851,1.1684,8.752,254,46.206,42.520325,-83.523384,0,955.5670484,0,84.69678,0,0 / 25,6527,2018-07-23 23:06:56:485
4.1216,1.3252,8.8346,252,47.333,42.520325,-83.523384,0,955.5670484,0,84.69678,0,0 / 25,7027,2018-07-23 23:06:56:985
3.9959,1.1744,9.3805,142,43.735,42.520325,-83.523384,0,955.5670484,0,84.69678,0,0 / 25,7527,2018-07-23 23:06:57:485
3.9061,1.397,8.7664,145,36.997,42.520325,-83.523384,0,955.5670484,0,84.69678,0,0 / 25,8026,2018-07-23 23:06:57:984
3.8403,1.9776,8.831,149,26.406,42.520325,-83.523384,0,955.5670484,0,84.69678,0,0 / 25,8526,2018-07-23 23:06:58:484
3.8942,1.5622,8.9902,145,26.196,42.520325,-83.523384,0,955.5670484,0,84.69678,0,0 / 25,9026,2018-07-23 23:06:58:984
4.3766,1.2809,8.8226,144,26.492,42.520256,-83.523315,787.1,955.5670484,0,48.935486,,0 / 25,9527,2018-07-23 23:06:59:485
4.1911,0.6273,8.3665,136,26.841,42.520256,-83.523315,787.1,953.3401064,0,48.935486,,0 / 25,10027,2018-07-23 23:06:59:985
4.3563,1.0223,8.7113,133,26.136,42.520256,-83.523315,787.1,953.3401064,0,48.935486,,0 / 25,10526,2018-07-23 23:07:00:484
4.4819,1.1468,8.7113,138,25.825,42.520256,-83.523315,787.1,953.3401064,0,48.935486,,0 / 25,11027,2018-07-23 23:07:00:985
4.5298,1.1648,8.7855,140,25.608,42.520256,-83.523315,787.1,953.3401064,0,48.935486,,13 / 22,11526,2018-07-23 23:07:01:484
4.4963,1.3874,8.6371,140,25.995,42.520256,-83.523315,787.1,953.3401064,0,48.935486,,13 / 22,12027,2018-07-23 23:07:01:985
4.4951,1.3982,8.7436,144,53.751,42.520256,-83.523315,787.1,953.3401064,0,48.935486,,13 / 23,12526,2018-07-23 23:07:02:484
4.4389,1.421,8.655,145,50.202,42.520256,-83.523315,787.1,953.3401064,0,48.935486,,13 / 23,13027,2018-07-23 23:07:02:985
4.3239,1.5036,8.8047,145,42.576,42.520256,-83.523315,787.1,953.3401064,0,48.935486,,13 / 23,13527,2018-07-23 23:07:03:485
4.2162,1.5263,8.5557,153,48.736,42.520256,-83.523315,787.1,953.3401064,0,48.935486,,13 / 23,14026,2018-07-23 23:07:03:984
3.9289,1.6089,8.667,151,45.75,42.520256,-83.523315,787.1,953.3401064,0,48.935486,,13 / 23,14527,2018-07-23 23:07:04:485
3.6368,1.2486,8.9627,151,41.615,42.520256,-83.523315,787.1,953.3401064,0,48.935486,,13 / 23,15027,2018-07-23 23:07:04:985
1.8268,-0.1832,9.4104,195,36.051,42.520256,-83.523315,787.1,953.3401064,0,48.935486,,13 / 23,15526,2018-07-23 23:07:05:484
2.1093,0.0395,10.161,237,26.573,42.520256,-83.523315,787.1,953.3401064,0,48.935486,,13 / 23,16027,2018-07-23 23:07:05:985
3.3124,0.4118,9.0094,270,26.496,42.520256,-83.523315,787.1,953.3401064,0,48.935486,,13 / 23,16527,2018-07-23 23:07:06:485
2.5965,2.1943,8.5329,348,40.396,42.520256,-83.523315,787.1,953.3401064,0,48.935486,,13 / 23,17026,2018-07-23 23:07:06:984
1.1612,-0.4417,10.1586,501,25.678,42.520256,-83.523315,787.1,953.3401064,0,48.935486,,13 / 23,17527,2018-07-23 23:07:07:485
2.6803,0.2789,9.59,457,26.621,42.520256,-83.523315,787.1,953.3401064,0,48.935486,,13 / 23,18027,2018-07-23 23:07:07:985
2.2075,-1.3096,7.8817,120,28.069,42.520256,-83.523315,787.1,953.3401064,0,48.935486,,13 / 23,18527,2018-07-23 23:07:08:485
0.929,-0.249,8.8095,164,28.084,42.520256,-83.523315,787.1,953.3401064,0,48.935486,,13 / 23,19026,2018-07-23 23:07:08:984
1.0355,-0.6069,9.5062,135,55.195,42.520256,-83.523315,787.1,953.3401064,0,48.935486,,21-Nov,19527,2018-07-23 23:07:09:485
0.8799,-0.2286,9.9156,111,47.96,42.520256,-83.523315,787.1,953.3401064,0,48.935486,,21-Nov,20026,2018-07-23 23:07:09:984
0.1808,1.6197,8.4515,113,41.076,42.520336,-83.52345,861.29,953.3401064,2.34,29.361288,153.9,21-Nov,20527,2018-07-23 23:07:10:485
1.7538,0.516,10.3441,145,39.675,42.520336,-83.52345,861.29,953.3401064,2.34,29.361288,153.9,21-Nov,21027,2018-07-23 23:07:10:985
-0.164,0.6883,10.8314,149,40.343,42.520336,-83.52345,861.29,953.3401064,2.34,29.361288,153.9,21-Nov,21526,2018-07-23 23:07:11:484
2.0877,0.079,9.511,147,48.158,42.520336,-83.52345,861.29,953.3401064,2.34,29.361288,153.9,21-Nov,22027,2018-07-23 23:07:11:985
1.9118,0.6776,10.228,135,50.061,42.520336,-83.52345,861.29,953.3401064,2.34,29.361288,153.9,21-Nov,22526,2018-07-23 23:07:12:484
1.8064,1.8878,9.0393,145,47.16,42.520336,-83.52345,861.29,953.3401064,2.34,29.361288,153.9,21-Nov,23028,2018-07-23 23:07:12:986
3.5135,1.4293,9.2093,186,30.256,42.520336,-83.52345,861.29,953.3401064,2.34,29.361288,153.9,21-Nov,23527,2018-07-23 23:07:13:485
4.1599,1.7047,9.0261,283,27.7,42.520336,-83.52345,861.29,953.3401064,2.34,29.361288,153.9,21-Nov,24027,2018-07-23 23:07:13:985
2.1201,1.1995,8.9184,457,33.264,42.520336,-83.52345,861.29,953.3401064,2.34,29.361288,153.9,21-Nov,24527,2018-07-23 23:07:14:485
1.0762,1.069,10.5153,386,29.033,42.520336,-83.52345,861.29,953.3401064,2.34,29.361288,153.9,21-Nov,25027,2018-07-23 23:07:14:985
2.7545,0.504,9.3673,171,41.518,42.520336,-83.52345,861.29,953.3401064,2.34,29.361288,153.9,21-Nov,25526,2018-07-23 23:07:15:484
1.5598,0.6273,8.8765,149,26.96,42.520336,-83.52345,861.29,953.3401064,2.34,29.361288,153.9,21-Nov,26027,2018-07-23 23:07:15:985
1.6783,1.7933,9.5062,138,27.864,42.520336,-83.52345,861.29,953.3401064,2.34,29.361288,153.9,21-Nov,26526,2018-07-23 23:07:16:484
1.8304,1.4365,9.3793,140,27.789,42.520336,-83.52345,861.29,953.3401064,2.34,29.361288,153.9,21-Nov,27027,2018-07-23 23:07:16:985
2.15,1.3874,9.3386,142,27.141,42.520336,-83.52345,861.29,953.3401064,2.34,29.361288,153.9,13 / 22,27526,2018-07-23 23:07:17:484
2.2877,0.9912,9.6618,230,25.269,42.520336,-83.52345,861.29,953.3401064,2.34,29.361288,153.9,13 / 22,28027,2018-07-23 23:07:17:985
1.9142,1.9656,8.9064,228,25.812,42.520336,-83.52345,861.29,953.3401064,2.34,29.361288,153.9,13 / 22,28527,2018-07-23 23:07:18:485
2.2182,1.093,9.8533,230,26.027,42.520336,-83.52345,861.29,953.3401064,2.34,29.361288,153.9,13 / 22,29027,2018-07-23 23:07:18:985
2.0734,1.1145,9.6187,226,25.905,42.52035,-83.52358,925.81,953.3401064,0.76,44.041935,350.5,13 / 22,29526,2018-07-23 23:07:19:484
1.9465,1.3587,9.5996,226,25.419,42.52035,-83.52358,925.81,953.3401064,0.76,44.041935,350.5,13 / 22,30026,2018-07-23 23:07:19:984
2.7138,1.6735,8.7556,226,25.741,42.52035,-83.52358,925.81,953.3401064,0.76,44.041935,350.5,13 / 22,30527,2018-07-23 23:07:20:485
2.8287,1.0475,9.5014,230,31.808,42.52035,-83.52358,925.81,953.3401064,0.76,44.041935,350.5,13 / 22,31026,2018-07-23 23:07:20:984
2.6887,1.0523,9.3793,228,46.946,42.52035,-83.52358,925.81,953.3401064,0.76,44.041935,350.5,13 / 22,31526,2018-07-23 23:07:21:484
2.5881,1.2665,9.2668,230,45.063,42.52035,-83.52358,925.81,953.3401064,0.76,44.041935,350.5,13 / 22,32026,2018-07-23 23:07:21:984
2.6995,1.0092,9.2488,232,46.285,42.52035,-83.52358,925.81,953.3401064,0.76,44.041935,350.5,13 / 22,32526,2018-07-23 23:07:22:484
2.9161,1.0858,9.396,230,49.92,42.52035,-83.52358,925.81,953.3401064,0.76,44.041935,350.5,13 / 22,33026,2018-07-23 23:07:22:984
3.0789,1.2246,9.3996,232,51.564,42.52035,-83.52358,925.81,953.3401064,0.76,44.041935,350.5,13 / 22,33527,2018-07-23 23:07:23:485
3.3363,1.1325,8.3222,235,47.418,42.52035,-83.52358,925.81,953.3401064,0.76,44.041935,350.5,13 / 22,34027,2018-07-23 23:07:23:985
3.0526,1.2258,9.1554,230,48.268,42.52035,-83.52358,925.81,953.3401064,0.76,44.041935,350.5,13 / 22,34527,2018-07-23 23:07:24:485
3.1627,1.1791,9.1698,230,48.279,42.52035,-83.52358,925.81,953.3401064,0.76,44.041935,350.5,13 / 22,35026,2018-07-23 23:07:24:984
3.0287,1.1791,9.2416,226,27.82,42.52035,-83.52358,925.81,953.3401064,0.76,44.041935,350.5,14 / 21,35527,2018-07-23 23:07:25:485
2.8563,1.1133,9.5313,226,30.705,42.52035,-83.52358,925.81,953.3401064,0.76,44.041935,350.5,14 / 21,36028,2018-07-23 23:07:25:986
2.9772,1.0989,9.3027,224,29.845,42.52035,-83.52358,925.81,953.3401064,0.76,44.041935,350.5,14 / 21,36526,2018-07-23 23:07:26:484
2.5762,1.2737,9.4068,226,28.352,42.52035,-83.52358,925.81,953.3401064,0.76,44.041935,350.5,14 / 21,37027,2018-07-23 23:07:26:985
2.6863,1.172,9.4152,228,43.028,42.52035,-83.52358,925.81,953.3401064,0.76,44.041935,350.5,14 / 21,37527,2018-07-23 23:07:27:485
2.8287,1.0678,9.3111,230,49.199,42.52035,-83.52358,925.81,953.3401064,0.76,44.041935,350.5,14 / 21,38026,2018-07-23 23:07:27:984
2.9676,1.0762,9.3134,230,47.657,42.52035,-83.52358,925.81,953.3401064,0.76,44.041935,350.5,14 / 21,38526,2018-07-23 23:07:28:484
2.982,1.166,9.3685,228,43.566,42.52035,-83.52358,925.81,953.3401064,0.76,44.041935,350.5,14 / 21,39027,2018-07-23 23:07:28:985
3.043,1.245,9.3003,224,50.395,42.52035,-83.52358,925.81,953.3401064,0.76,44.041935,350.5,14 / 21,39526,2018-07-23 23:07:29:484
3.1005,1.2055,9.329,226,46.842,42.52035,-83.52358,925.81,953.3401064,0.76,44.041935,350.5,14 / 21,40026,2018-07-23 23:07:29:984
2.0734,0.4896,11.3545,232,45.632,42.52035,-83.52358,925.81,953.3401064,0.76,44.041935,350.5,14 / 21,40527,2018-07-23 23:07:30:485
4.8542,3.3255,8.4479,232,46.923,42.52035,-83.52358,925.81,953.3401064,0.76,44.041935,350.5,14 / 21,41027,2018-07-23 23:07:30:985
5.7772,1.883,9.912,176,45.512,42.52035,-83.52358,925.81,953.3401064,0.76,44.041935,350.5,14 / 21,41527,2018-07-23 23:07:31:485
9.0884,0.0084,1.2234,56,54.296,42.52035,-83.52358,925.81,953.3401064,0.76,44.041935,350.5,14 / 21,42028,2018-07-23 23:07:31:986
7.6543,-6.5577,1.5263,42,53.053,42.52035,-83.52358,925.81,953.3401064,0.76,44.041935,350.5,14 / 21,42528,2018-07-23 23:07:32:486
6.6942,-7.3095,0.4369,35,40.659,42.52035,-83.52358,925.81,953.3401064,0.76,44.041935,350.5,14 / 21,43028,2018-07-23 23:07:32:986
6.0837,-7.4172,0.103,18,44.879,42.52035,-83.52358,925.81,953.3401064,0.76,44.041935,350.5,13 / 22,43528,2018-07-23 23:07:33:486
6.1016,-7.6076,0.316,18,33.861,42.52035,-83.52358,925.81,953.3401064,0.76,44.041935,350.5,13 / 22,44028,2018-07-23 23:07:33:986
6.1256,-7.5645,0.5171,18,35.361,42.52035,-83.52358,925.81,953.3401064,0.76,44.041935,350.5,13 / 22,44527,2018-07-23 23:07:34:485
6.0621,-7.5717,0.5231,18,31.986,42.52035,-83.52358,925.81,953.3401064,0.76,44.041935,350.5,13 / 22,45028,2018-07-23 23:07:34:986
6.1076,-7.5669,0.5854,18,27.817,42.520466,-83.52348,780.65,953.3401064,1.04,44.041935,350,13 / 22,45527,2018-07-23 23:07:35:485
6.1256,-7.5621,0.5854,18,27.7,42.520466,-83.52348,780.65,959.2198463,1.04,44.041935,350,13 / 22,46027,2018-07-23 23:07:35:985
6.1711,-7.4939,0.5231,18,48.393,42.520466,-83.52348,780.65,959.2198463,1.04,44.041935,350,13 / 22,46528,2018-07-23 23:07:36:486
6.2106,-7.4555,0.5052,18,45.384,42.520466,-83.52348,780.65,959.2198463,1.04,44.041935,350,13 / 22,47027,2018-07-23 23:07:36:985
6.1962,-7.4555,0.5375,18,52.662,42.520466,-83.52348,780.65,959.2198463,1.04,44.041935,350,13 / 22,47527,2018-07-23 23:07:37:485
6.2441,-7.4651,0.4465,18,47.058,42.520466,-83.52348,780.65,959.2198463,1.04,44.041935,350,13 / 22,48027,2018-07-23 23:07:37:985
6.1603,-7.2963,0.3029,18,30.231,42.520466,-83.52348,780.65,959.2198463,1.04,44.041935,350,13 / 22,48528,2018-07-23 23:07:38:486
6.0274,-8.181,2.2721,13,47.174,42.520466,-83.52348,780.65,959.2198463,1.04,44.041935,350,13 / 22,49026,2018-07-23 23:07:38:984
6.5841,-6.7708,1.245,28,51.973,42.520466,-83.52348,780.65,959.2198463,1.04,44.041935,350,13 / 22,49527,2018-07-23 23:07:39:485
7.0342,-6.0609,2.0016,28,45.694,42.520466,-83.52348,780.65,959.2198463,1.04,44.041935,350,13 / 22,50028,2018-07-23 23:07:39:986
6.7253,-6.954,-0.6213,31,40.774,42.520466,-83.52348,780.65,959.2198463,1.04,44.041935,350,13 / 22,50527,2018-07-23 23:07:40:485
9.8282,-8.5329,-0.4992,24,44.018,42.520466,-83.52348,780.65,959.2198463,1.04,44.041935,350,13 / 22,51027,2018-07-23 23:07:40:985
8.1247,-5.6204,-0.3567,35,35.296,42.520466,-83.52348,780.65,959.2198463,1.04,44.041935,350,13 / 22,51527,2018-07-23 23:07:41:485
7.8793,-6.6379,-0.1437,18,45.288,42.520466,-83.52348,780.65,959.2198463,1.04,44.041935,350,13 / 22,52027,2018-07-23 23:07:41:985
7.7417,-8.2732,0.1161,82,37.746,42.520466,-83.52348,780.65,959.2198463,1.04,44.041935,350,21-Nov,52528,2018-07-23 23:07:42:486
9.7612,-3.1196,-0.6129,136,47.143,42.520466,-83.52348,780.65,959.2198463,1.04,44.041935,350,21-Nov,53027,2018-07-23 23:07:42:985
8.8358,-4.7692,0.2909,109,39.739,42.520466,-83.52348,780.65,959.2198463,1.04,44.041935,350,22-Nov,53528,2018-07-23 23:07:43:486
9.8258,-2.1859,-1.7609,122,33.086,42.520466,-83.52348,780.65,959.2198463,1.04,44.041935,350,22-Nov,54028,2018-07-23 23:07:43:986
9.3122,-2.9125,-0.7937,82,38.296,42.52038,-83.52346,900,959.2198463,0.61,29.361288,202.7,22-Nov,54527,2018-07-23 23:07:44:485
7.9476,-6.3015,-0.2167,31,36.54,42.52038,-83.52346,900,959.2198463,0.61,29.361288,202.7,22-Nov,55027,2018-07-23 23:07:44:985
7.4735,-6.9228,0.6608,24,38.166,42.52038,-83.52346,900,959.2198463,0.61,29.361288,202.7,22-Nov,55527,2018-07-23 23:07:45:485
7.4783,-6.1435,0.7446,24,32.112,42.52038,-83.52346,900,959.2198463,0.61,29.361288,202.7,22-Nov,56029,2018-07-23 23:07:45:987
7.2125,-6.1651,0.7494,28,33.352,42.52038,-83.52346,900,959.2198463,0.61,29.361288,202.7,22-Nov,56528,2018-07-23 23:07:46:486
7.592,-6.2908,0.6776,26,38.835,42.52038,-83.52346,900,959.2198463,0.61,29.361288,202.7,22-Nov,57028,2018-07-23 23:07:46:986
7.8949,-5.5809,-0.1556,28,35.983,42.52038,-83.52346,900,959.2198463,0.61,29.361288,202.7,22-Nov,57526,2018-07-23 23:07:47:484
7.8422,-5.527,0.0168,30,37.086,42.52038,-83.52346,900,959.2198463,0.61,29.361288,202.7,22-Nov,58027,2018-07-23 23:07:47:985
8.017,-5.8933,-0.2239,30,44.403,42.52038,-83.52346,900,959.2198463,0.61,29.361288,202.7,22-Nov,58528,2018-07-23 23:07:48:486
8.7771,-4.7297,1.2773,40,37.151,42.52038,-83.52346,900,959.2198463,0.61,29.361288,202.7,22-Nov,59028,2018-07-23 23:07:48:986
8.7819,-6.0059,5.9197,66,42.252,42.52038,-83.52346,900,959.2198463,0.61,29.361288,202.7,22-Nov,59527,2018-07-23 23:07:49:485
8.8681,-2.812,2.9018,70,42.563,42.52038,-83.52346,900,959.2198463,0.61,29.361288,202.7,22-Nov,60028,2018-07-23 23:07:49:986
9.5672,-2.1177,6.4655,122,34.621,42.52038,-83.52346,900,959.2198463,0.61,29.361288,202.7,13 / 21,60527,2018-07-23 23:07:50:485
1.0044,0.9828,10.0856,135,32.773,42.52038,-83.52346,900,959.2198463,0.61,29.361288,202.7,13 / 21,61028,2018-07-23 23:07:50:986
-0.4525,0.1891,9.4894,127,35.178,42.52038,-83.52346,900,959.2198463,0.61,29.361288,202.7,13 / 22,61528,2018-07-23 23:07:51:486
-1.719,0.7338,9.7109,135,42.359,42.52038,-83.52346,900,959.2198463,0.61,29.361288,202.7,13 / 22,62028,2018-07-23 23:07:51:986
-2.1033,-0.577,10.2963,164,37.953,42.52038,-83.52346,900,959.2198463,0.61,29.361288,202.7,13 / 22,62527,2018-07-23 23:07:52:485
-2.9401,-0.8236,9.2536,178,38.752,42.52038,-83.52346,900,959.2198463,0.61,29.361288,202.7,13 / 22,63028,2018-07-23 23:07:52:986
-3.0275,-1.4605,9.7432,189,41.716,42.52038,-83.52346,900,959.2198463,0.61,29.361288,202.7,13 / 22,63527,2018-07-23 23:07:53:485
-2.4684,-1.5814,10.3597,193,49.794,42.52038,-83.52346,900,959.2198463,0.61,29.361288,202.7,13 / 22,64027,2018-07-23 23:07:53:985
-2.0135,-2.229,9.2165,217,41.513,42.52038,-83.52346,900,959.2198463,0.61,29.361288,202.7,13 / 22,64527,2018-07-23 23:07:54:485
-2.6839,-2.1668,8.9555,215,27.621,42.52038,-83.52346,900,959.2198463,0.61,29.361288,202.7,13 / 22,65027,2018-07-23 23:07:54:985
-2.2865,-2.0698,9.3146,211,39.262,42.52038,-83.52346,900,959.2198463,0.61,29.361288,202.7,13 / 22,65528,2018-07-23 23:07:55:486
-2.1057,-2.2158,9.4296,209,31.762,42.52038,-83.52346,900,959.2198463,0.61,29.361288,202.7,13 / 22,66027,2018-07-23 23:07:55:985
-2.7569,-1.7095,9.08,200,27.784,42.52038,-83.52346,900,959.2198463,0.61,29.361288,202.7,13 / 22,66528,2018-07-23 23:07:56:486
-2.7569,-1.9178,9.5086,200,27.112,42.52038,-83.52346,900,959.2198463,0.61,29.361288,202.7,13 / 22,67027,2018-07-23 23:07:56:985
-2.6324,-1.4329,9.7348,200,26.897,42.52038,-83.52346,900,959.2198463,0.61,29.361288,202.7,13 / 22,67526,2018-07-23 23:07:57:484
-2.5402,-1.8543,9.2751,198,35.304,42.52038,-83.52346,900,959.2198463,0.61,29.361288,202.7,13 / 22,68028,2018-07-23 23:07:57:986
-2.6205,-2.0686,9.2464,200,42.307,42.52038,-83.52346,900,959.2198463,0.61,29.361288,202.7,17 / 22,68527,2018-07-23 23:07:58:485
-2.4241,-1.8926,9.1147,204,47.603,42.52038,-83.52346,900,959.2198463,0.61,29.361288,202.7,17 / 22,69027,2018-07-23 23:07:58:985
-2.4169,-2.1428,9.578,208,45.637,42.5203,-83.52332,887.1,959.2198463,3.71,39.148384,156.6,17 / 22,69527,2018-07-23 23:07:59:485
-2.3463,-2.32,9.4116,215,35.453,42.5203,-83.52332,887.1,954.2341071,3.71,39.148384,156.6,17 / 22,70027,2018-07-23 23:07:59:985
-2.1656,-2.4134,9.3494,213,26.833,42.5203,-83.52332,887.1,954.2341071,3.71,39.148384,156.6,17 / 22,70527,2018-07-23 23:08:00:485
-2.2936,-2.2434,9.7049,215,40.518,42.5203,-83.52332,887.1,954.2341071,3.71,39.148384,156.6,17 / 22,71026,2018-07-23 23:08:00:984
-2.1225,-2.3954,9.408,211,32.477,42.5203,-83.52332,887.1,954.2341071,3.71,39.148384,156.6,17 / 22,71529,2018-07-23 23:08:01:487
-2.1656,-2.2051,9.4918,211,33.19,42.5203,-83.52332,887.1,954.2341071,3.71,39.148384,156.6,17 / 22,72027,2018-07-23 23:08:01:985
-2.0039,-2.302,9.1686,211,36.202,42.5203,-83.52332,887.1,954.2341071,3.71,39.148384,156.6,17 / 22,72528,2018-07-23 23:08:02:486
-2.1907,-2.1871,9.2751,219,37.924,42.5203,-83.52332,887.1,954.2341071,3.71,39.148384,156.6,17 / 22,73027,2018-07-23 23:08:02:985
-2.223,-2.2984,9.3134,220,36.352,42.5203,-83.52332,887.1,954.2341071,3.71,39.148384,156.6,17 / 22,73527,2018-07-23 23:08:03:485
-2.0734,-2.3523,9.1937,220,31.783,42.5203,-83.52332,887.1,954.2341071,3.71,39.148384,156.6,17 / 22,74027,2018-07-23 23:08:03:985
-2.1177,-2.3439,9.3781,219,32.1,42.5203,-83.52332,887.1,954.2341071,3.71,39.148384,156.6,17 / 22,74528,2018-07-23 23:08:04:486
-3.0706,-2.6635,9.1925,244,30.939,42.5203,-83.52332,887.1,954.2341071,3.71,39.148384,156.6,17 / 22,75026,2018-07-23 23:08:04:984
-2.6995,-3.8271,9.098,250,50.605,42.5203,-83.52332,887.1,954.2341071,3.71,39.148384,156.6,17 / 22,75529,2018-07-23 23:08:05:487
-1.6783,-3.486,9.9084,248,51.427,42.5203,-83.52332,887.1,954.2341071,3.71,39.148384,156.6,17 / 22,76027,2018-07-23 23:08:05:985
-2.0446,-2.6899,9.1734,259,44.463,42.5203,-83.52332,887.1,954.2341071,3.71,39.148384,156.6,14 / 22,76528,2018-07-23 23:08:06:486
-2.4624,-3.316,8.1906,289,35.201,42.5203,-83.52332,887.1,954.2341071,3.71,39.148384,156.6,14 / 22,77029,2018-07-23 23:08:06:987
-2.4098,-2.7234,9.0477,326,34.712,42.5203,-83.52332,887.1,954.2341071,3.71,39.148384,156.6,14 / 22,77527,2018-07-23 23:08:07:485
-2.1895,-3.5506,7.6327,363,44.8,42.5203,-83.52332,887.1,954.2341071,3.71,39.148384,156.6,14 / 22,78029,2018-07-23 23:08:07:987
-1.3551,-2.2817,10.7524,390,30.497,42.5203,-83.52332,887.1,954.2341071,3.71,39.148384,156.6,14 / 22,78527,2018-07-23 23:08:08:485
-2.6013,-4.1803,8.3462,358,55.719,42.5203,-83.52332,887.1,954.2341071,3.71,39.148384,156.6,14 / 22,79026,2018-07-23 23:08:08:984
-3.7553,-4.5681,8.3797,330,52.796,42.5203,-83.52332,887.1,954.2341071,3.71,39.148384,156.6,14 / 22,79527,2018-07-23 23:08:09:485
-4.5191,-2.824,9.8031,232,50.994,42.5203,-83.52332,887.1,954.2341071,3.71,39.148384,156.6,14 / 22,80027,2018-07-23 23:08:09:985
-4.0079,-3.8595,7.8554,209,46.517,42.5203,-83.52332,887.1,954.2341071,3.71,39.148384,156.6,14 / 22,80528,2018-07-23 23:08:10:486
-2.745,-3.3591,7.2365,189,40.989,42.5203,-83.52332,887.1,954.2341071,3.71,39.148384,156.6,14 / 22,81027,2018-07-23 23:08:10:985
-4.1432,-5.0075,9.9527,126,45.586,42.5203,-83.52332,887.1,954.2341071,3.71,39.148384,156.6,14 / 22,81527,2018-07-23 23:08:11:485
-2.5139,-3.9732,8.9016,99,44.301,42.5203,-83.52332,887.1,954.2341071,3.71,39.148384,156.6,14 / 22,82028,2018-07-23 23:08:11:986
-2.3032,-3.468,9.1004,84,46.257,42.5203,-83.52332,887.1,954.2341071,3.71,39.148384,156.6,14 / 22,82526,2018-07-23 23:08:12:484
-1.4569,-1.069,9.3158,59,40.518,42.5203,-83.52332,887.1,954.2341071,3.71,39.148384,156.6,14 / 22,83029,2018-07-23 23:08:12:987
-3.3303,-0.6488,9.1734,24,44.501,42.5203,-83.52332,887.1,954.2341071,3.71,39.148384,156.6,14 / 22,83527,2018-07-23 23:08:13:485
0.0778,-0.3184,10.8014,21,57.689,42.5203,-83.52332,887.1,954.2341071,3.71,39.148384,156.6,14 / 22,84028,2018-07-23 23:08:13:986
0.8272,2.7701,8.8849,28,53.531,42.5203,-83.52332,887.1,954.2341071,3.71,39.148384,156.6,16 / 22,84527,2018-07-23 23:08:14:485
3.6895,1.3886,16.9079,33,41.487,42.5203,-83.52332,887.1,954.2341071,3.71,39.148384,156.6,16 / 22,85027,2018-07-23 23:08:14:985
-0.832,3.6212,6.0094,18,45.742,42.5203,-83.52332,887.1,954.2341071,3.71,39.148384,156.6,15 / 21,85528,2018-07-23 23:08:15:486
1.3372,1.3384,9.9707,31,52.913,42.5203,-83.52332,887.1,954.2341071,3.71,39.148384,156.6,15 / 21,86027,2018-07-23 23:08:15:985
3.7864,2.1787,8.9735,45,44.541,42.52036,-83.52342,867.74,954.2341071,0,24.467743,,15 / 21,86527,2018-07-23 23:08:16:485
0.8308,1.8794,10.7847,42,44.108,42.52036,-83.52342,867.74,954.2341071,0,24.467743,,15 / 21,87028,2018-07-23 23:08:16:986
2.6863,2.1488,8.2456,56,41.917,42.52036,-83.52342,867.74,954.2341071,0,24.467743,,15 / 21,87529,2018-07-23 23:08:17:487
5.8083,-1.4437,8.5389,99,44.975,42.52036,-83.52342,867.74,954.2341071,0,24.467743,,15 / 21,88027,2018-07-23 23:08:17:985
4.6579,-2.7617,7.1431,113,39.98,42.52036,-83.52342,867.74,954.2341071,0,24.467743,,15 / 21,88528,2018-07-23 23:08:18:486
3.0442,-3.5578,8.8262,106,42.937,42.52036,-83.52342,867.74,954.2341071,0,24.467743,,15 / 21,89027,2018-07-23 23:08:18:985
1.8459,-4.3155,8.5796,99,42.576,42.52036,-83.52342,867.74,954.2341071,0,24.467743,,15 / 21,89526,2018-07-23 23:08:19:484
1.2665,-3.7996,8.9986,90,41.708,42.52036,-83.52342,867.74,954.2341071,0,24.467743,,15 / 21,90027,2018-07-23 23:08:19:985
2.5163,-4.6986,8.1906,113,42.745,42.52036,-83.52342,867.74,954.2341071,0,24.467743,,15 / 21,90527,2018-07-23 23:08:20:485
6.7217,-6.5972,3.6536,107,41.032,42.52036,-83.52342,867.74,954.2341071,0,24.467743,,15 / 21,91027,2018-07-23 23:08:20:985
6.6607,-7.2879,0.2502,77,46.948,42.52036,-83.52342,867.74,954.2341071,0,24.467743,,15 / 21,91527,2018-07-23 23:08:21:485
9.7803,-5.7341,1.6843,102,48.909,42.52036,-83.52342,867.74,954.2341071,0,24.467743,,15 / 21,92027,2018-07-23 23:08:21:985
3.5829,0.0215,8.0924,99,47.91,42.52036,-83.52342,867.74,954.2341071,0,24.467743,,15 / 21,92527,2018-07-23 23:08:22:485
2.8012,-2.7545,7.507,38,43.753,42.52036,-83.52342,867.74,954.2341071,0,24.467743,,15 / 21,93028,2018-07-23 23:08:22:986
8.9878,-6.6068,-2.4361,70,45.216,42.52036,-83.52342,867.74,954.2341071,0,24.467743,,16 / 21,93528,2018-07-23 23:08:23:486
6.7109,-6.4763,-1.9597,51,41.354,42.52036,-83.52342,867.74,954.2341071,0,24.467743,,16 / 21,94027,2018-07-23 23:08:23:985
6.7325,-5.879,-2.3068,0,39.717,42.52036,-83.52342,867.74,954.2341071,0,24.467743,,16 / 21,94528,2018-07-23 23:08:24:486
6.371,-7.203,2.2505,28,39.52,42.52036,-83.52342,867.74,954.2341071,0,24.467743,,16 / 21,95027,2018-07-23 23:08:24:985
7.7752,-11.5903,-1.5191,30,33.754,42.52041,-83.52355,793.55,954.2341071,2.3,39.148384,342.3,16 / 21,95527,2018-07-23 23:08:25:485
10.6769,-4.5574,3.5698,70,32.37,42.52041,-83.52355,793.55,957.9582931,2.3,39.148384,342.3,16 / 21,96028,2018-07-23 23:08:25:986
0.9266,1.8747,7.2604,375,31.884,42.52041,-83.52355,793.55,957.9582931,2.3,39.148384,342.3,16 / 21,96526,2018-07-23 23:08:26:484
0.5291,1.2893,8.1499,484,43.266,42.52041,-83.52355,793.55,957.9582931,2.3,39.148384,342.3,16 / 21,97027,2018-07-23 23:08:26:985
1.5802,1.0283,9.657,469,65.858,42.52041,-83.52355,793.55,957.9582931,2.3,39.148384,342.3,16 / 21,97526,2018-07-23 23:08:27:484
1.3431,2.6288,8.8358,151,28.559,42.52041,-83.52355,793.55,957.9582931,2.3,39.148384,342.3,16 / 21,98026,2018-07-23 23:08:27:984
1.7549,1.4509,9.8833,200,30.893,42.52041,-83.52355,793.55,957.9582931,2.3,39.148384,342.3,16 / 21,98526,2018-07-23 23:08:28:484
3.128,0.2646,9.3027,206,47.614,42.52041,-83.52355,793.55,957.9582931,2.3,39.148384,342.3,16 / 21,99027,2018-07-23 23:08:28:985
2.9461,0.1329,9.3733,211,45.192,42.52041,-83.52355,793.55,957.9582931,2.3,39.148384,342.3,16 / 21,99527,2018-07-23 23:08:29:485
2.8635,0.3555,9.4858,213,45.928,42.52041,-83.52355,793.55,957.9582931,2.3,39.148384,342.3,16 / 21,100027,2018-07-23 23:08:29:985
2.9951,-0.2298,9.2572,219,52.929,42.52041,-83.52355,793.55,957.9582931,2.3,39.148384,342.3,16 / 21,100527,2018-07-23 23:08:30:485
3.6117,3.869,16.4805,215,52.718,42.52041,-83.52355,793.55,957.9582931,2.3,39.148384,342.3,16 / 21,101027,2018-07-23 23:08:30:985
3.4668,1.8902,8.8825,106,46.693,42.52041,-83.52355,793.55,957.9582931,2.3,39.148384,342.3,15 / 22,101527,2018-07-23 23:08:31:485
4.7238,2.0375,7.6495,99,38.93,42.52041,-83.52355,793.55,957.9582931,2.3,39.148384,342.3,15 / 22,102027,2018-07-23 23:08:31:985
9.3458,-1.7154,4.0881,42,50.282,42.52041,-83.52355,793.55,957.9582931,2.3,39.148384,342.3,15 / 22,102528,2018-07-23 23:08:32:486
5.5629,-5.6096,3.5255,38,52.927,42.52041,-83.52355,793.55,957.9582931,2.3,39.148384,342.3,15 / 22,103028,2018-07-23 23:08:32:986
4.4161,-9.9419,-0.5195,68,53.769,42.52041,-83.52355,793.55,957.9582931,2.3,39.148384,342.3,15 / 22,103527,2018-07-23 23:08:33:485
4.3323,-9.0118,0.3675,136,47.633,42.52041,-83.52355,793.55,957.9582931,2.3,39.148384,342.3,15 / 22,104027,2018-07-23 23:08:33:985
7.4316,-8.3222,4.9129,116,43.548,42.52041,-83.52355,793.55,957.9582931,2.3,39.148384,342.3,15 / 22,104527,2018-07-23 23:08:34:485
7.1216,-5.7521,3.2202,118,31.794,42.52041,-83.52355,793.55,957.9582931,2.3,39.148384,342.3,15 / 22,105028,2018-07-23 23:08:34:986
6.79,-5.8083,2.8132,133,46.807,42.52041,-83.52355,793.55,957.9582931,2.3,39.148384,342.3,15 / 22,105527,2018-07-23 23:08:35:485
5.9604,-6.9408,3.5877,144,49.703,42.52041,-83.52355,793.55,957.9582931,2.3,39.148384,342.3,15 / 22,106027,2018-07-23 23:08:35:985
5.6204,-7.8925,2.1715,113,45.379,42.52041,-83.52355,793.55,957.9582931,2.3,39.148384,342.3,15 / 22,106526,2018-07-23 23:08:36:484
4.47,-8.4467,1.7561,109,45.785,42.52041,-83.52355,793.55,957.9582931,2.3,39.148384,342.3,15 / 22,107029,2018-07-23 23:08:36:987
4.2006,-8.4994,1.8759,109,44.452,42.52041,-83.52355,793.55,957.9582931,2.3,39.148384,342.3,15 / 22,107529,2018-07-23 23:08:37:487
4.3395,-8.5377,2.1524,116,42.908,42.52041,-83.52355,793.55,957.9582931,2.3,39.148384,342.3,15 / 22,108027,2018-07-23 23:08:37:985
4.3718,-8.4432,2.2757,118,39.941,42.52041,-83.52355,793.55,957.9582931,2.3,39.148384,342.3,15 / 22,108529,2018-07-23 23:08:38:487
4.2952,-8.4288,2.2541,120,31.135,42.52041,-83.52355,793.55,957.9582931,2.3,39.148384,342.3,15 / 22,109028,2018-07-23 23:08:38:986
4.4341,-8.5497,2.0123,118,41.064,42.52041,-83.52355,793.55,957.9582931,2.3,39.148384,342.3,13 / 21,109527,2018-07-23 23:08:39:485
4.3993,-8.5066,2.0315,118,37.893,42.52041,-83.52355,793.55,957.9582931,2.3,39.148384,342.3,13 / 21,110028,2018-07-23 23:08:39:986
4.3395,-8.4839,2.0794,116,43.651,42.52041,-83.52355,793.55,957.9582931,2.3,39.148384,342.3,13 / 21,110527,2018-07-23 23:08:40:485
4.3287,-8.5748,1.9465,111,39.695,42.52041,-83.52355,793.55,957.9582931,2.3,39.148384,342.3,13 / 21,111027,2018-07-23 23:08:40:985
4.3263,-8.5557,2.0327,113,30.884,42.52041,-83.52355,793.55,957.9582931,2.3,39.148384,342.3,13 / 21,111529,2018-07-23 23:08:41:487
4.3096,-8.5976,1.9537,116,36.422,42.52041,-83.52355,793.55,957.9582931,2.3,39.148384,342.3,13 / 21,112027,2018-07-23 23:08:41:985
4.209,-8.4862,2.1584,116,43.057,42.52041,-83.52355,793.55,957.9582931,2.3,39.148384,342.3,13 / 21,112528,2018-07-23 23:08:42:486
4.148,-8.5054,2.1632,120,32.461,42.52041,-83.52355,793.55,957.9582931,2.3,39.148384,342.3,13 / 21,113027,2018-07-23 23:08:42:985
4.2605,-8.5365,2.2565,120,34.265,42.520264,-83.52326,909.68,957.9582931,0,141.9129,,13 / 21,113527,2018-07-23 23:08:43:485
4.0737,-8.6167,2.0614,116,34.317,42.520264,-83.52326,909.68,957.9582931,0,141.9129,,13 / 21,114027,2018-07-23 23:08:43:985
4.0977,-8.5916,2.1368,116,40.689,42.520264,-83.52326,909.68,957.9582931,0,141.9129,,13 / 21,114527,2018-07-23 23:08:44:485
4.0474,-8.6383,2.2314,115,41.681,42.520264,-83.52326,909.68,957.9582931,0,141.9129,,13 / 21,115028,2018-07-23 23:08:44:986
4.1707,-8.6072,2.0985,116,47.447,42.520264,-83.52326,909.68,957.9582931,0,141.9129,,13 / 21,115527,2018-07-23 23:08:45:485
4.1695,-8.6335,2.1045,115,38.504,42.520264,-83.52326,909.68,957.9582931,0,141.9129,,13 / 21,116028,2018-07-23 23:08:45:986
4.1132,-8.5461,2.1033,116,37.758,42.520264,-83.52326,909.68,957.9582931,0,141.9129,,13 / 21,116527,2018-07-23 23:08:46:485
4.1887,-8.6119,2.071,116,34.269,42.520264,-83.52326,909.68,957.9582931,0,141.9129,,13 / 21,117027,2018-07-23 23:08:46:985
4.1432,-8.6251,2.077,116,43.822,42.520264,-83.52326,909.68,957.9582931,0,141.9129,,21-Dec,117527,2018-07-23 23:08:47:485
4.1719,-8.6024,1.9884,113,38.536,42.520264,-83.52326,909.68,957.9582931,0,141.9129,,21-Dec,118027,2018-07-23 23:08:47:985
4.13,-8.6227,2.0506,113,38.952,42.520264,-83.52326,909.68,957.9582931,0,141.9129,,22-Dec,118526,2018-07-23 23:08:48:484
3.9863,-8.752,2.211,113,32.081,42.520264,-83.52326,909.68,957.9582931,0,141.9129,,22-Dec,119027,2018-07-23 23:08:48:985
4.3144,-8.3989,2.2122,120,47.446,42.520264,-83.52326,909.68,957.9582931,0,141.9129,,22-Dec,119527,2018-07-23 23:08:49:485
4.0438,-8.6311,2.0842,113,50.929,42.520264,-83.52326,909.68,957.9582931,0,141.9129,,22-Dec,120027,2018-07-23 23:08:49:985
4.4209,-8.4707,2.0518,115,42.821,42.520264,-83.52326,909.68,957.9582931,0,141.9129,,22-Dec,120526,2018-07-23 23:08:50:484
4.3706,-8.4779,2.1452,113,41.746,42.520264,-83.52326,909.68,957.9582931,0,141.9129,,22-Dec,121027,2018-07-23 23:08:50:985
4.3574,-8.5808,2.1249,111,43.564,42.520264,-83.52326,909.68,957.9582931,0,141.9129,,22-Dec,121527,2018-07-23 23:08:51:485
4.1851,-8.6203,1.9453,109,42.3,42.520264,-83.52326,909.68,957.9582931,0,141.9129,,22-Dec,122028,2018-07-23 23:08:51:986
4.3993,-8.655,2.1045,113,42.67,42.520264,-83.52326,909.68,957.9582931,0,141.9129,,22-Dec,122528,2018-07-23 23:08:52:486
4.3778,-8.412,2.557,131,34.62,42.520264,-83.52326,909.68,957.9582931,0,141.9129,,22-Dec,123028,2018-07-23 23:08:52:986
4.3814,-8.3701,2.5893,127,35.28,42.520264,-83.52326,909.68,957.9582931,0,141.9129,,22-Dec,123527,2018-07-23 23:08:53:485
4.1743,-8.5677,2.4409,120,45.617,42.520264,-83.52326,909.68,957.9582931,0,141.9129,,22-Dec,124027,2018-07-23 23:08:53:985
4.0534,-8.6048,2.5055,116,40.128,42.520264,-83.52326,909.68,957.9582931,0,141.9129,,22-Dec,124526,2018-07-23 23:08:54:484
4.1863,-8.5557,2.472,120,44.844,42.520264,-83.52326,909.68,957.9582931,0,141.9129,,22-Dec,125027,2018-07-23 23:08:54:985
4.0534,-8.4336,3.3172,120,47.137,42.520264,-83.52326,909.68,957.9582931,0,141.9129,,22-Dec,125527,2018-07-23 23:08:55:485
2.4541,-8.8609,3.219,138,45.715,42.520264,-83.52326,909.68,957.9582931,0,141.9129,,22-Jul,126028,2018-07-23 23:08:55:986
3.0047,-8.685,3.1723,138,45.854,42.520264,-83.52326,909.68,957.9582931,0,141.9129,,22-Jul,126527,2018-07-23 23:08:56:485
3.4417,-8.6526,2.897,124,43.655,42.52035,-83.52351,854.84,957.9582931,0,14.680644,,22-Jul,127027,2018-07-23 23:08:56:985
3.7505,-8.667,2.6025,120,44.432,42.52035,-83.52351,854.84,956.9456461,0,14.680644,,22-Jul,127526,2018-07-23 23:08:57:484
3.6739,-8.9914,2.3679,115,47.341,42.52035,-83.52351,854.84,956.9456461,0,14.680644,,22-Jul,128027,2018-07-23 23:08:57:985
3.3507,-8.8262,2.6971,124,42.123,42.52035,-83.52351,854.84,956.9456461,0,14.680644,,22-Jul,128526,2018-07-23 23:08:58:484
3.7206,-8.6179,2.5402,120,49.066,42.52035,-83.52351,854.84,956.9456461,0,14.680644,,22-Jul,129027,2018-07-23 23:08:58:985
4.221,-8.5162,2.4193,118,45.801,42.52035,-83.52351,854.84,956.9456461,0,14.680644,,22-Jul,129528,2018-07-23 23:08:59:486
4.6124,-8.4671,2.1644,109,45.085,42.52035,-83.52351,854.84,956.9456461,0,14.680644,,22-Jul,130027,2018-07-23 23:08:59:985
4.6711,-8.4743,1.798,107,50.192,42.52035,-83.52351,854.84,956.9456461,0,14.680644,,22-Jul,130529,2018-07-23 23:09:00:487
4.7238,-8.4994,1.6592,106,40.862,42.52035,-83.52351,854.84,956.9456461,0,14.680644,,22-Jul,131027,2018-07-23 23:09:00:985
4.6747,-8.418,1.567,106,45.638,42.52035,-83.52351,854.84,956.9456461,0,14.680644,,22-Jul,131526,2018-07-23 23:09:01:484
4.6711,-8.3809,1.6652,107,40.798,42.52035,-83.52351,854.84,956.9456461,0,14.680644,,22-Jul,132027,2018-07-23 23:09:01:985
4.5777,-8.4539,1.7406,107,46.795,42.52035,-83.52351,854.84,956.9456461,0,14.680644,,22-Jul,132526,2018-07-23 23:09:02:484
4.6699,-8.4982,1.7645,109,44.83,42.52035,-83.52351,854.84,956.9456461,0,14.680644,,22-Jul,133028,2018-07-23 23:09:02:986
4.4807,-8.5006,1.7346,107,46.182,42.52035,-83.52351,854.84,956.9456461,0,14.680644,,22-Jul,133527,2018-07-23 23:09:03:485
4.5993,-8.4839,1.7358,111,39.504,42.52035,-83.52351,854.84,956.9456461,0,14.680644,,13 / 21,134028,2018-07-23 23:09:03:986
4.4209,-8.5006,1.8112,113,46.074,42.52035,-83.52351,854.84,956.9456461,0,14.680644,,13 / 21,134528,2018-07-23 23:09:04:486
4.3479,-8.594,1.8699,109,51.394,42.52035,-83.52351,854.84,956.9456461,0,14.680644,,13 / 21,135028,2018-07-23 23:09:04:986
4.2964,-8.5617,1.8375,109,48.478,42.52035,-83.52351,854.84,956.9456461,0,14.680644,,13 / 21,135527,2018-07-23 23:09:05:485
4.3467,-8.5006,1.8687,109,45.527,42.52035,-83.52351,854.84,956.9456461,0,14.680644,,13 / 21,136027,2018-07-23 23:09:05:985
4.3431,-8.5509,1.6759,109,42.58,42.52035,-83.52351,854.84,956.9456461,0,14.680644,,13 / 21,136527,2018-07-23 23:09:06:485
4.3395,-8.5102,1.7957,109,32.444,42.52035,-83.52351,854.84,956.9456461,0,14.680644,,13 / 21,137028,2018-07-23 23:09:06:986
4.3239,-8.5593,1.8591,109,37.026,42.52035,-83.52351,854.84,956.9456461,0,14.680644,,13 / 21,137527,2018-07-23 23:09:07:485
4.3574,-8.5557,1.9237,113,32.209,42.52035,-83.52351,854.84,956.9456461,0,14.680644,,13 / 21,138028,2018-07-23 23:09:07:986
4.312,-8.4958,2.0135,115,30.372,42.52035,-83.52351,854.84,956.9456461,0,14.680644,,13 / 21,138527,2018-07-23 23:09:08:485
4.3395,-8.5413,1.9477,111,32.594,42.52035,-83.52351,854.84,956.9456461,0,14.680644,,13 / 21,139026,2018-07-23 23:09:08:984
4.3311,-8.6335,1.8292,111,32.448,42.52035,-83.52351,854.84,956.9456461,0,14.680644,,13 / 21,139527,2018-07-23 23:09:09:485
4.0031,-8.9519,2.4948,109,46.411,42.52035,-83.52351,854.84,956.9456461,0,14.680644,,13 / 21,140027,2018-07-23 23:09:09:985
3.2681,-9.0333,3.5051,127,39.094,42.52035,-83.52351,854.84,956.9456461,0,14.680644,,13 / 21,140528,2018-07-23 23:09:10:486
3.5494,-8.6072,2.3188,120,43.471,42.52035,-83.52351,854.84,956.9456461,0,14.680644,,21-Jul,141028,2018-07-23 23:09:10:986
3.9899,-9.1578,1.2594,93,35.9,42.52035,-83.52351,854.84,956.9456461,0,14.680644,,21-Jul,141527,2018-07-23 23:09:11:485
3.729,-8.7329,1.4293,84,29.687,42.52035,-83.52351,854.84,956.9456461,0,14.680644,,21-Jul,142028,2018-07-23 23:09:11:986
3.4129,-9.0297,1.403,81,41.127,42.52035,-83.52351,854.84,956.9456461,0,14.680644,,21-Jul,142528,2018-07-23 23:09:12:486
4.1647,-8.8023,1.8567,81,34.442,42.52035,-83.52351,854.84,956.9456461,0,14.680644,,21-Jul,143027,2018-07-23 23:09:12:985
3.4465,-9.1123,2.2685,82,43.429,42.52035,-83.52351,854.84,956.9456461,0,14.680644,,21-Jul,143528,2018-07-23 23:09:13:486
2.0255,-8.8011,3.2992,102,43.784,42.52035,-83.52351,854.84,956.9456461,0,14.680644,,21-Jul,144026,2018-07-23 23:09:13:984
2.6145,-8.6155,3.541,115,41.524,42.52035,-83.52351,854.84,956.9456461,0,14.680644,,21-Jul,144529,2018-07-23 23:09:14:487
3.3507,-8.8992,2.6061,99,43.573,42.52035,-83.52351,854.84,956.9456461,0,14.680644,,21-Jul,145027,2018-07-23 23:09:14:985
3.5961,-8.7628,1.9154,90,39.098,42.52035,-83.52351,854.84,956.9456461,0,14.680644,,21-Jul,145528,2018-07-23 23:09:15:486
3.5949,-8.9399,1.5526,84,41.048,42.52035,-83.52351,854.84,956.9456461,0,14.680644,,21-Jul,146028,2018-07-23 23:09:15:986
3.6978,-8.9471,1.3898,81,31.038,42.52035,-83.52351,854.84,956.9456461,0,14.680644,,21-Jul,146527,2018-07-23 23:09:16:485
3.8726,-8.8741,1.3443,81,50.985,42.52035,-83.52351,854.84,956.9456461,0,14.680644,,21-Jul,147027,2018-07-23 23:09:16:985
3.9828,-8.825,1.3994,81,49.124,42.52035,-83.52351,854.84,956.9456461,0,14.680644,,21-Jul,147527,2018-07-23 23:09:17:485
4.1096,-8.7053,1.4557,82,52.728,42.52035,-83.52351,854.84,956.9456461,0,14.680644,,21-Jul,148026,2018-07-23 23:09:17:984
4.2066,-8.6766,1.5119,84,46.556,42.52035,-83.52351,854.84,956.9456461,0,14.680644,,21-Jul,148527,2018-07-23 23:09:18:485
4.3383,-8.6191,1.4748,84,46.191,42.52035,-83.52351,854.84,956.9456461,0,14.680644,,21-Jul,149026,2018-07-23 23:09:18:984
4.3132,-8.7376,1.3024,81,46.633,42.52035,-83.52351,854.84,956.9456461,0,14.680644,,21-Jul,149527,2018-07-23 23:09:19:485
4.1875,-8.7161,1.3252,84,47.54,42.52035,-83.52351,854.84,956.9456461,0,14.680644,,21-Nov,150027,2018-07-23 23:09:19:985
4.1599,-8.7029,1.5263,82,47.515,42.52035,-83.52351,854.84,956.9456461,0,14.680644,,21-Nov,150527,2018-07-23 23:09:20:485
4.2605,-8.6706,1.397,82,40.479,42.52035,-83.52351,854.84,956.9456461,0,14.680644,,21-Nov,151027,2018-07-23 23:09:20:985
4.1647,-8.6419,1.5969,84,29.96,42.52035,-83.52351,854.84,956.9456461,0,14.680644,,21-Nov,151526,2018-07-23 23:09:21:484
4.1671,-8.7329,1.4796,82,36.067,42.52035,-83.52351,854.84,956.9456461,0,14.680644,,21-Nov,152028,2018-07-23 23:09:21:986
4.2521,-8.6862,1.409,84,45.573,42.52035,-83.52351,854.84,956.9456461,0,14.680644,,21-Nov,152528,2018-07-23 23:09:22:486
4.1096,-8.6754,1.4006,81,44.093,42.52035,-83.52351,854.84,956.9456461,0,14.680644,,21-Nov,153027,2018-07-23 23:09:22:985
4.0989,-8.7771,1.5335,84,47.734,42.52035,-83.52351,854.84,956.9456461,0,14.680644,,21-Nov,153528,2018-07-23 23:09:23:486
4.063,-8.673,1.6328,86,39.819,42.52035,-83.52351,854.84,956.9456461,0,14.680644,,21-Nov,154026,2018-07-23 23:09:23:984
4.2377,-8.6586,1.6305,86,42.618,42.52035,-83.52351,854.84,956.9456461,0,14.680644,,21-Nov,154529,2018-07-23 23:09:24:487
4.4137,-8.6084,1.5347,84,36.911,42.52035,-83.52351,854.84,956.9456461,0,14.680644,,21-Nov,155027,2018-07-23 23:09:24:985
4.4508,-8.576,1.567,84,30.446,42.52035,-83.52351,854.84,956.9456461,0,14.680644,,21-Nov,155527,2018-07-23 23:09:25:485
4.5358,-8.4898,1.4521,84,30.123,42.52035,-83.52351,854.84,956.9456461,0,14.680644,,21-Nov,156027,2018-07-23 23:09:25:985
4.47,-8.5988,1.4676,84,30.39,42.52035,-83.52351,854.84,956.9456461,0,14.680644,,21-Nov,156527,2018-07-23 23:09:26:485
4.5945,-8.57,1.4688,84,30.451,42.52035,-83.52351,854.84,956.9456461,0,14.680644,,21-Nov,157027,2018-07-23 23:09:26:985
4.44,-8.5485,1.4102,82,29.997,42.52035,-83.52351,854.84,956.9456461,0,14.680644,,21-Nov,157528,2018-07-23 23:09:27:486
4.1168,-9.5026,2.071,84,28.76,42.52035,-83.52351,854.84,956.9456461,0,14.680644,,21-Nov,158026,2018-07-23 23:09:27:984
2.6528,-8.2432,1.0918,107,42.684,42.52035,-83.52351,854.84,956.9456461,0,14.680644,,21-Nov,158529,2018-07-23 23:09:28:487
-0.3567,-8.7544,3.0251,111,44.491,42.52035,-83.52351,854.84,956.9456461,0,14.680644,,21-Nov,159026,2018-07-23 23:09:28:984
0.5219,-9.5098,2.8826,97,30.36,42.52035,-83.52351,854.84,956.9456461,0,14.680644,,21-Nov,159527,2018-07-23 23:09:29:485
2.1584,-9.3099,2.1261,95,42.264,42.52035,-83.52351,854.84,956.9456461,0,14.680644,,21-Nov,160027,2018-07-23 23:09:29:985
2.0566,-9.414,2.2697,97,41.994,42.52035,-83.52351,854.84,956.9456461,0,14.680644,,21-Nov,160527,2018-07-23 23:09:30:485
2.1991,-9.2416,2.0351,91,46.87,42.52035,-83.52351,854.84,956.9456461,0,14.680644,,21-Nov,161026,2018-07-23 23:09:30:984
3.5877,-8.5162,1.6149,88,43.335,42.52035,-83.52351,854.84,956.9456461,0,14.680644,,21-Nov,161529,2018-07-23 23:09:31:487
5.4097,-8.1942,0.9685,77,38.3,42.52035,-83.52351,854.84,956.9456461,0,14.680644,,21-Nov,162027,2018-07-23 23:09:31:985
4.5502,-8.4515,0.0958,77,44.408,42.52035,-83.52351,854.84,956.9456461,0,14.680644,,21-Nov,162526,2018-07-23 23:09:32:484
4.7202,-8.6072,1.1863,77,41.039,42.52035,-83.52351,854.84,956.9456461,0,14.680644,,21-Nov,163027,2018-07-23 23:09:32:985
4.4077,-8.6155,0.9074,77,45.705,42.52035,-83.52351,854.84,956.9456461,0,14.680644,,21-Nov,163528,2018-07-23 23:09:33:486
4.5394,-8.6012,1.3144,77,51.334,42.52035,-83.52351,854.84,956.9456461,0,14.680644,,21-Nov,164027,2018-07-23 23:09:33:985
4.8351,-8.4036,1.0139,77,42.184,42.52035,-83.52351,854.84,956.9456461,0,14.680644,,21-Nov,164527,2018-07-23 23:09:34:485
4.9009,-8.3594,0.6009,77,47.055,42.52035,-83.52351,854.84,956.9456461,0,14.680644,,21-Nov,165027,2018-07-23 23:09:34:985
5.357,-8.0361,0.8918,77,43.296,42.52035,-83.52351,854.84,956.9456461,0,14.680644,,21-Nov,165527,2018-07-23 23:09:35:485
5.7042,-7.9715,0.8009,77,42.802,42.52035,-83.52351,854.84,956.9456461,0,14.680644,,21-Nov,166026,2018-07-23 23:09:35:984
5.5557,-7.9775,0.8631,77,46.46,42.52035,-83.52351,854.84,956.9456461,0,14.680644,,21-Nov,166529,2018-07-23 23:09:36:487
5.2457,-8.2109,0.6548,77,42.299,42.52035,-83.52351,854.84,956.9456461,0,14.680644,,13 / 22,167027,2018-07-23 23:09:36:985
5.1727,-8.1894,0.9146,79,29.792,42.52035,-83.52351,854.84,956.9456461,0,14.680644,,13 / 22,167529,2018-07-23 23:09:37:487
5.2002,-8.2325,0.7805,79,30.135,42.52035,-83.52351,854.84,956.9456461,0,14.680644,,13 / 22,168027,2018-07-23 23:09:37:985
5.2218,-8.2205,0.7386,79,46.009,42.52035,-83.52351,854.84,956.9456461,0,14.680644,,13 / 22,168526,2018-07-23 23:09:38:484
5.1308,-8.2887,0.7183,77,44.438,42.52035,-83.52351,854.84,956.9456461,0,14.680644,,13 / 22,169027,2018-07-23 23:09:38:985
5.272,-8.2109,0.7171,77,34.365,42.52035,-83.52351,854.84,956.9456461,0,14.680644,,13 / 22,169526,2018-07-23 23:09:39:484
5.2984,-8.1558,0.7123,77,31.911,42.52035,-83.52351,854.84,956.9456461,0,14.680644,,13 / 22,170027,2018-07-23 23:09:39:985
5.3271,-8.1977,0.6369,77,42.599,42.52035,-83.52351,854.84,956.9456461,0,14.680644,,13 / 22,170528,2018-07-23 23:09:40:486
5.2924,-8.1654,0.7614,77,33.522,42.52035,-83.52351,854.84,956.9456461,0,14.680644,,13 / 22,171027,2018-07-23 23:09:40:985
5.3439,-8.1918,0.7638,79,30.401,42.52035,-83.52351,854.84,956.9456461,0,14.680644,,13 / 22,171528,2018-07-23 23:09:41:486
5.296,-8.096,0.7709,77,29.305,42.52035,-83.52351,854.84,956.9456461,0,14.680644,,13 / 22,172028,2018-07-23 23:09:41:986
5.29,-8.1367,0.7326,77,30.516,42.52035,-83.52351,854.84,956.9456461,0,14.680644,,13 / 22,172527,2018-07-23 23:09:42:485
5.3319,-8.1403,0.6835,77,35.514,42.52035,-83.52351,854.84,956.9456461,0,14.680644,,13 / 22,173027,2018-07-23 23:09:42:985
5.2325,-8.1989,0.7063,77,29.389,42.52035,-83.52351,854.84,956.9456461,0,14.680644,,13 / 22,173527,2018-07-23 23:09:43:485
5.3307,-8.1139,0.6883,77,31.23,42.52035,-83.52351,854.84,956.9456461,0,14.680644,,14 / 22,174027,2018-07-23 23:09:43:985
5.2672,-8.1954,0.7219,77,30.085,42.52035,-83.52351,854.84,956.9456461,0,14.680644,,14 / 22,174527,2018-07-23 23:09:44:485
5.2325,-8.1451,0.8679,79,29.546,42.520126,-83.52322,903.23,956.9456461,3.89,78.29677,180.5,14 / 21,175027,2018-07-23 23:09:44:985
5.3247,-8.1535,0.7458,81,30.572,42.520126,-83.52322,903.23,950.2140569,3.89,78.29677,180.5,14 / 21,175529,2018-07-23 23:09:45:487
5.3391,-8.1235,0.7482,81,34.652,42.520126,-83.52322,903.23,950.2140569,3.89,78.29677,180.5,14 / 21,176027,2018-07-23 23:09:45:985
5.2936,-8.2145,0.735,79,36.711,42.520126,-83.52322,903.23,950.2140569,3.89,78.29677,180.5,14 / 21,176529,2018-07-23 23:09:46:487
4.9285,-8.5198,0.6883,77,36.662,42.520126,-83.52322,903.23,950.2140569,3.89,78.29677,180.5,14 / 21,177027,2018-07-23 23:09:46:985
4.4173,-8.6323,0.5638,77,29.394,42.520126,-83.52322,903.23,950.2140569,3.89,78.29677,180.5,14 / 21,177527,2018-07-23 23:09:47:485
5.0709,-8.193,0.9445,79,29.622,42.520126,-83.52322,903.23,950.2140569,3.89,78.29677,180.5,14 / 21,178028,2018-07-23 23:09:47:986
5.199,-8.1846,0.583,79,29.81,42.520126,-83.52322,903.23,950.2140569,3.89,78.29677,180.5,14 / 21,178526,2018-07-23 23:09:48:484
5.4432,-8.0014,0.6045,77,29.96,42.520126,-83.52322,903.23,950.2140569,3.89,78.29677,180.5,14 / 21,179027,2018-07-23 23:09:48:985
5.5174,-8.102,0.2358,73,41.831,42.520126,-83.52322,903.23,950.2140569,3.89,78.29677,180.5,14 / 21,179527,2018-07-23 23:09:49:485
5.4073,-8.0433,0.1137,73,36.528,42.520126,-83.52322,903.23,950.2140569,3.89,78.29677,180.5,14 / 21,180027,2018-07-23 23:09:49:985
5.3223,-8.1475,0.1712,73,34.019,42.520126,-83.52322,903.23,950.2140569,3.89,78.29677,180.5,14 / 21,180528,2018-07-23 23:09:50:486
5.3163,-8.2253,0.1317,73,30.572,42.520126,-83.52322,903.23,950.2140569,3.89,78.29677,180.5,14 / 21,181027,2018-07-23 23:09:50:985
5.357,-8.1271,0.3531,73,33.396,42.520126,-83.52322,903.23,950.2140569,3.89,78.29677,180.5,14 / 21,181529,2018-07-23 23:09:51:487
5.2625,-8.1558,0.3723,73,31.865,42.520126,-83.52322,903.23,950.2140569,3.89,78.29677,180.5,14 / 21,182028,2018-07-23 23:09:51:986
5.375,-8.1594,0.17,73,34.902,42.520126,-83.52322,903.23,950.2140569,3.89,78.29677,180.5,14 / 21,182527,2018-07-23 23:09:52:485
5.3893,-8.1666,0.1999,73,47.659,42.520126,-83.52322,903.23,950.2140569,3.89,78.29677,180.5,21-Sep,183028,2018-07-23 23:09:52:986
5.3067,-8.2815,0.5028,73,38.097,42.520126,-83.52322,903.23,950.2140569,3.89,78.29677,180.5,21-Sep,183526,2018-07-23 23:09:53:484
4.4724,-8.8202,1.2426,73,34.868,42.52035,-83.52346,861.29,950.2140569,0,92.97742,,21-Sep,184027,2018-07-23 23:09:53:985
2.3906,-8.9064,1.7633,81,31.399,42.52035,-83.52346,861.29,950.2140569,0,92.97742,,21-Sep,184529,2018-07-23 23:09:54:487
5.7916,-8.6993,1.33,81,33.639,42.52035,-83.52346,861.29,950.2140569,0,92.97742,,21-Sep,185027,2018-07-23 23:09:54:985
3.8176,-10.0054,0.5303,52,34.673,42.52035,-83.52346,861.29,950.2140569,0,92.97742,,21-Sep,185528,2018-07-23 23:09:55:486
4.2952,-7.0545,-2.3284,38,33.764,42.52035,-83.52346,861.29,950.2140569,0,92.97742,,21-Sep,186027,2018-07-23 23:09:55:985
4.3586,-7.0545,-0.3615,45,34.588,42.52035,-83.52346,861.29,950.2140569,0,92.97742,,21-Sep,186528,2018-07-23 23:09:56:486
7.7393,-5.7245,-4.61,35,35.66,42.52035,-83.52346,861.29,950.2140569,0,92.97742,,21-Sep,187028,2018-07-23 23:09:56:986
6.1507,-4.8159,-4.7609,23,36.386,42.52035,-83.52346,861.29,950.2140569,0,92.97742,,21-Sep,187527,2018-07-23 23:09:57:485
5.7616,-7.0497,-2.0961,4,39.867,42.52035,-83.52346,861.29,950.2140569,0,92.97742,,21-Sep,188028,2018-07-23 23:09:57:986
5.8215,-7.2113,-2.2613,0,39.624,42.52035,-83.52346,861.29,950.2140569,0,92.97742,,21-Sep,188527,2018-07-23 23:09:58:485
5.7293,-7.2042,-1.2462,23,43.586,42.52035,-83.52346,861.29,950.2140569,0,92.97742,,21-Sep,189028,2018-07-23 23:09:58:986
6.5721,-7.5405,-3.3974,18,39.121,42.52035,-83.52346,861.29,950.2140569,0,92.97742,,21-Sep,189528,2018-07-23 23:09:59:486
5.606,-6.7852,-2.3631,21,39.702,42.52035,-83.52346,861.29,950.2140569,0,92.97742,,21-Sep,190026,2018-07-23 23:09:59:984
6.4775,-7.2006,-2.6133,13,39.08,42.52035,-83.52346,861.29,950.2140569,0,92.97742,,21-Sep,190528,2018-07-23 23:10:00:486
6.1914,-7.367,-1.986,14,38.996,42.52035,-83.52346,861.29,950.2140569,0,92.97742,,13 / 22,191027,2018-07-23 23:10:00:985
6.3722,-6.037,-2.9916,0,40.054,42.52035,-83.52346,861.29,950.2140569,0,92.97742,,13 / 22,191527,2018-07-23 23:10:01:485
5.8083,-6.6248,-1.8711,0,43.486,42.52035,-83.52346,861.29,950.2140569,0,92.97742,,13 / 22,192027,2018-07-23 23:10:01:985
9.7229,-6.2884,-0.741,0,48.287,42.52035,-83.52346,861.29,950.2140569,0,92.97742,,13 / 22,192527,2018-07-23 23:10:02:485
3.3375,-0.6656,8.6766,0,42.4,42.52035,-83.52346,861.29,950.2140569,0,92.97742,,13 / 22,193027,2018-07-23 23:10:02:985
2.5151,2.8491,5.867,0,42.243,42.52035,-83.52346,861.29,950.2140569,0,92.97742,,13 / 22,193528,2018-07-23 23:10:03:486
1.9345,0.5207,12.4475,0,41.759,42.52035,-83.52346,861.29,950.2140569,0,92.97742,,13 / 22,194027,2018-07-23 23:10:03:985
12.9766,-2.8096,-2.3547,0,41.314,42.52035,-83.52346,861.29,950.2140569,0,92.97742,,13 / 22,194526,2018-07-23 23:10:04:484
7.0976,-6.8091,0.8404,0,43.782,42.52035,-83.52346,861.29,950.2140569,0,92.97742,,13 / 22,195027,2018-07-23 23:10:04:985
4.3718,-3.9612,-0.3352,0,42.87,42.52035,-83.52346,861.29,950.2140569,0,92.97742,,13 / 22,195528,2018-07-23 23:10:05:486
5.0159,-3.5566,-0.2598,0,42.715,42.52035,-83.52346,861.29,950.2140569,0,92.97742,,13 / 22,196026,2018-07-23 23:10:05:984
5.8263,-5.8167,-0.5531,0,42.749,42.52035,-83.52346,861.29,950.2140569,0,92.97742,,13 / 22,196527,2018-07-23 23:10:06:485
9.9084,-10.2699,-0.498,0,45.337,42.52035,-83.52346,861.29,950.2140569,0,92.97742,,13 / 22,197028,2018-07-23 23:10:06:986
7.4352,-7.2197,-0.3938,0,42.298,42.52035,-83.52346,861.29,950.2140569,0,92.97742,,13 / 22,197526,2018-07-23 23:10:07:484
6.4404,-5.8646,-0.5004,0,42.417,42.52035,-83.52346,861.29,950.2140569,0,92.97742,,13 / 22,198027,2018-07-23 23:10:07:985
6.784,-6.5984,-0.7434,0,42.322,42.52035,-83.52346,861.29,950.2140569,0,92.97742,,13 / 22,198528,2018-07-23 23:10:08:486
6.8283,-6.9743,-1.3575,0,42.126,42.52035,-83.52346,861.29,950.2140569,0,92.97742,,13 / 22,199027,2018-07-23 23:10:08:985
5.6503,-5.5881,0.1269,0,43.009,42.52035,-83.52346,861.29,950.2140569,0,92.97742,,13 / 22,199528,2018-07-23 23:10:09:486
6.4799,-4.7561,-2.9113,0,44.971,42.52035,-83.52346,861.29,950.2140569,0,92.97742,,13 / 22,200026,2018-07-23 23:10:09:984
9.5565,-9.6187,-0.8727,0,47.62,42.52035,-83.52346,861.29,950.2140569,0,92.97742,,13 / 22,200526,2018-07-23 23:10:10:484
10.3621,-8.9064,-0.3926,0,45.183,42.52035,-83.52346,861.29,950.2140569,0,92.97742,,13 / 22,201027,2018-07-23 23:10:10:985
6.4129,-5.1427,-1.9309,0,45.885,42.52035,-83.52346,861.29,950.2140569,0,92.97742,,13 / 22,201527,2018-07-23 23:10:11:485
4.4915,-3.65,-0.0718,0,44.7,42.52035,-83.52346,861.29,950.2140569,0,92.97742,,13 / 22,202026,2018-07-23 23:10:11:984
6.189,-3.4548,-3.3962,0,45.752,42.52035,-83.52346,861.29,950.2140569,0,92.97742,,13 / 22,202529,2018-07-23 23:10:12:487
4.8866,-4.4831,-0.091,0,48.778,42.52035,-83.52346,861.29,950.2140569,0,92.97742,,13 / 22,203027,2018-07-23 23:10:12:985
8.0732,-6.8031,-1.4365,0,49.832,42.52035,-83.52346,861.29,950.2140569,0,92.97742,,13 / 22,203526,2018-07-23 23:10:13:484
7.9176,-7.3298,0.6404,0,47.216,42.52035,-83.52346,861.29,950.2140569,0,92.97742,,13 / 22,204027,2018-07-23 23:10:13:985
8.3079,-7.8913,-2.0004,0,45.803,42.52035,-83.52346,861.29,950.2140569,0,92.97742,,13 / 22,204528,2018-07-23 23:10:14:486
8.4276,-5.8849,-1.6867,0,52.525,42.52035,-83.52346,861.29,950.2140569,0,92.97742,,13 / 22,205027,2018-07-23 23:10:14:985
6.262,-5.138,-0.2765,0,48.832,42.52035,-83.52346,861.29,950.2140569,0,92.97742,,13 / 22,205527,2018-07-23 23:10:15:485
6.9899,0.1018,4.5358,0,48.141,42.52035,-83.52346,861.29,950.2140569,0,92.97742,,13 / 22,206027,2018-07-23 23:10:15:985
5.1631,0.3053,10.8733,0,48.65,42.52035,-83.52346,861.29,950.2140569,0,92.97742,,13 / 22,206526,2018-07-23 23:10:16:484
7.4891,5.9101,7.7716,0,47.54,42.52035,-83.52346,861.29,950.2140569,0,92.97742,,13 / 22,207027,2018-07-23 23:10:16:985
5.1631,4.7321,4.81,0,50.887,42.52035,-83.52346,861.29,950.2140569,0,92.97742,,13 / 22,207528,2018-07-23 23:10:17:486
8.3857,5.2325,0.5626,0,49.485,42.52035,-83.52346,861.29,950.2140569,0,92.97742,,21-Dec,208026,2018-07-23 23:10:17:984
11.4826,3.7996,-4.9117,0,50.056,42.52035,-83.52346,861.29,950.2140569,0,92.97742,,21-Dec,208528,2018-07-23 23:10:18:486
8.7269,0.1317,-2.5546,0,50.546,42.52035,-83.52346,861.29,950.2140569,0,92.97742,,21-Dec,209026,2018-07-23 23:10:18:984
9.3182,-0.6871,-1.5071,0,50.284,42.52035,-83.52346,861.29,950.2140569,0,92.97742,,21-Dec,209527,2018-07-23 23:10:19:485
9.7121,-0.9122,-1.1696,0,50.113,42.52035,-83.52346,861.29,950.2140569,0,92.97742,,21-Dec,210028,2018-07-23 23:10:19:986
9.4188,-0.583,-0.0204,0,50.434,42.52035,-83.52346,861.29,950.2140569,0,92.97742,,21-Dec,210527,2018-07-23 23:10:20:485
9.9515,-1.3228,-4.2318,0,50.865,42.52035,-83.52362,816.13,950.2140569,1.26,78.29677,15.7,21-Dec,211028,2018-07-23 23:10:20:986
10.1873,-1.0391,-0.7781,0,51.782,42.52035,-83.52362,816.13,956.8450221,1.26,78.29677,15.7,21-Dec,211527,2018-07-23 23:10:21:485
11.0361,-1.3467,-1.5,0,47.493,42.52035,-83.52362,816.13,956.8450221,1.26,78.29677,15.7,21-Dec,212028,2018-07-23 23:10:21:986
10.9571,0.2634,-3.3447,0,54.281,42.52035,-83.52362,816.13,956.8450221,1.26,78.29677,15.7,21-Dec,212528,2018-07-23 23:10:22:486
10.5034,-0.3436,-1.2809,0,52.569,42.52035,-83.52362,816.13,956.8450221,1.26,78.29677,15.7,21-Dec,213028,2018-07-23 23:10:22:986
7.3957,1.4389,-1.9788,0,49.489,42.52035,-83.52362,816.13,956.8450221,1.26,78.29677,15.7,21-Dec,213527,2018-07-23 23:10:23:485
5.7808,0.6883,-0.6847,0,58.691,42.52035,-83.52362,816.13,956.8450221,1.26,78.29677,15.7,21-Dec,214027,2018-07-23 23:10:23:985
7.7548,-0.9134,-2.4385,0,46.051,42.52035,-83.52362,816.13,956.8450221,1.26,78.29677,15.7,21-Dec,214527,2018-07-23 23:10:24:485
8.9352,-0.9625,-1.6532,0,51.206,42.52035,-83.52362,816.13,956.8450221,1.26,78.29677,15.7,15 / 21,215027,2018-07-23 23:10:24:985
12.0237,-0.3077,-2.5067,0,51.42,42.52035,-83.52362,816.13,956.8450221,1.26,78.29677,15.7,15 / 21,215527,2018-07-23 23:10:25:485
15.682,0.4872,-2.6372,0,42.833,42.52035,-83.52362,816.13,956.8450221,1.26,78.29677,15.7,15 / 21,216027,2018-07-23 23:10:25:985
5.041,1.6604,-0.7949,0,44.95,42.52035,-83.52362,816.13,956.8450221,1.26,78.29677,15.7,15 / 21,216528,2018-07-23 23:10:26:486
11.0504,-0.5531,-2.4744,0,44.858,42.52035,-83.52362,816.13,956.8450221,1.26,78.29677,15.7,15 / 21,217027,2018-07-23 23:10:26:985
7.9583,-0.2538,-1.4844,0,45.433,42.52035,-83.52362,816.13,956.8450221,1.26,78.29677,15.7,15 / 21,217528,2018-07-23 23:10:27:486
9.4463,-1.0666,-4.0235,0,42.341,42.52035,-83.52362,816.13,956.8450221,1.26,78.29677,15.7,15 / 21,218027,2018-07-23 23:10:27:985
8.9423,0.99,-1.7681,0,42.896,42.52035,-83.52362,816.13,956.8450221,1.26,78.29677,15.7,15 / 21,218528,2018-07-23 23:10:28:486
13.8157,-0.6812,0.0587,0,43.326,42.52035,-83.52362,816.13,956.8450221,1.26,78.29677,15.7,15 / 21,219028,2018-07-23 23:10:28:986
3.2801,0.4752,-1.5024,0,42.495,42.52035,-83.52362,816.13,956.8450221,1.26,78.29677,15.7,15 / 21,219527,2018-07-23 23:10:29:485
8.1451,-0.2442,-0.5986,0,47.424,42.52035,-83.52362,816.13,956.8450221,1.26,78.29677,15.7,15 / 21,220027,2018-07-23 23:10:29:985
7.993,-0.0251,-0.9852,0,44.82,42.52035,-83.52362,816.13,956.8450221,1.26,78.29677,15.7,15 / 21,220527,2018-07-23 23:10:30:485
11.412,1.002,-3.0442,0,43.411,42.52035,-83.52362,816.13,956.8450221,1.26,78.29677,15.7,15 / 21,221027,2018-07-23 23:10:30:985
9.5122,-2.6085,-2.2075,0,48.207,42.52035,-83.52362,816.13,956.8450221,1.26,78.29677,15.7,15 / 21,221528,2018-07-23 23:10:31:486
10.4447,-1.5562,0.1101,0,45.276,42.52035,-83.52362,816.13,956.8450221,1.26,78.29677,15.7,15 / 21,222031,2018-07-23 23:10:31:989
8.3905,2.1668,-2.7677,0,45.731,42.52035,-83.52362,816.13,956.8450221,1.26,78.29677,15.7,15 / 21,222527,2018-07-23 23:10:32:485
11.6945,-0.8236,-0.99,0,42.406,42.52035,-83.52362,816.13,956.8450221,1.26,78.29677,15.7,15 / 21,223027,2018-07-23 23:10:32:985
9.7181,-0.328,1.0427,14,42.288,42.52035,-83.52362,816.13,956.8450221,1.26,78.29677,15.7,15 / 21,223527,2018-07-23 23:10:33:485
9.1949,-1.6831,-3.1328,38,39.428,42.52035,-83.52362,816.13,956.8450221,1.26,78.29677,15.7,21-Mar,224027,2018-07-23 23:10:33:985
8.3809,-3.2932,-2.4624,30,36.365,42.52035,-83.52362,816.13,956.8450221,1.26,78.29677,15.7,21-Mar,224527,2018-07-23 23:10:34:485
8.333,1.1672,-2.7078,33,34.074,42.52035,-83.52362,816.13,956.8450221,1.26,78.29677,15.7,21-Mar,225026,2018-07-23 23:10:34:984
9.9551,2.1225,-1.3408,84,33.925,42.52035,-83.52362,816.13,956.8450221,1.26,78.29677,15.7,21-Mar,225528,2018-07-23 23:10:35:486
8.8023,1.8328,0.2203,109,48.324,42.52035,-83.52362,816.13,956.8450221,1.26,78.29677,15.7,21-Mar,226026,2018-07-23 23:10:35:984
9.3685,2.7294,0.8296,113,42.661,42.52035,-83.52362,816.13,956.8450221,1.26,78.29677,15.7,21-Mar,226528,2018-07-23 23:10:36:486
9.7935,1.8184,0.1915,122,35.638,42.52028,-83.52338,793.55,956.8450221,0,58.722576,,21-Mar,227026,2018-07-23 23:10:36:984
9.7707,1.1851,0.2239,120,34.724,42.52028,-83.52338,793.55,956.8450221,0,58.722576,,21-Mar,227528,2018-07-23 23:10:37:486
9.5505,1.2127,0.2813,113,34.307,42.52028,-83.52338,793.55,956.8450221,0,58.722576,,21-Mar,228028,2018-07-23 23:10:37:986
9.5289,1.3048,0.3136,111,38.762,42.52028,-83.52338,793.55,956.8450221,0,58.722576,,21-Mar,228527,2018-07-23 23:10:38:485
9.5253,1.0008,0.4381,93,38.355,42.52028,-83.52338,793.55,956.8450221,0,58.722576,,21-Mar,229027,2018-07-23 23:10:38:985
9.0633,1.9644,1.5455,66,36.003,42.52028,-83.52338,793.55,956.8450221,0,58.722576,,21-Mar,229527,2018-07-23 23:10:39:485
9.4116,0.6213,0.8272,52,34.066,42.52028,-83.52338,793.55,956.8450221,0,58.722576,,21-Mar,230027,2018-07-23 23:10:39:985
10.4579,-0.3699,1.5263,31,32.702,42.52028,-83.52338,793.55,956.8450221,0,58.722576,,21-Mar,230528,2018-07-23 23:10:40:486
10.6039,1.5431,-5.46,24,32.672,42.52028,-83.52338,793.55,956.8450221,0,58.722576,,21-Dec,231026,2018-07-23 23:10:40:984
9.0704,-0.7566,-2.6372,28,35.504,42.52028,-83.52338,793.55,956.8450221,0,58.722576,,21-Dec,231528,2018-07-23 23:10:41:486
12.8652,-1.8902,-4.6507,35,37.828,42.52028,-83.52338,793.55,956.8450221,0,58.722576,,21-Dec,232026,2018-07-23 23:10:41:984
9.6965,-0.4573,-2.7617,0,41.703,42.52028,-83.52338,793.55,956.8450221,0,58.722576,,21-Dec,232527,2018-07-23 23:10:42:485
10.0545,0.7027,-1.4712,0,41.337,42.52028,-83.52338,793.55,956.8450221,0,58.722576,,21-Dec,233026,2018-07-23 23:10:42:984
8.843,-0.5363,-0.2634,0,57.682,42.52028,-83.52338,793.55,956.8450221,0,58.722576,,21-Dec,233527,2018-07-23 23:10:43:485
12.4894,-0.9948,-1.0798,0,43.18,42.52028,-83.52338,793.55,956.8450221,0,58.722576,,21-Dec,234027,2018-07-23 23:10:43:985
7.9715,0.6069,-0.8128,0,42.656,42.52028,-83.52338,793.55,956.8450221,0,58.722576,,21-Dec,234529,2018-07-23 23:10:44:487
5.3594,0.8535,-1.312,0,42.296,42.52028,-83.52338,793.55,956.8450221,0,58.722576,,21-Dec,235027,2018-07-23 23:10:44:985
8.2875,1.0546,-1.0918,0,43.058,42.52028,-83.52338,793.55,956.8450221,0,58.722576,,21-Dec,235527,2018-07-23 23:10:45:485
13.0747,-0.504,-3.5231,0,45.311,42.52028,-83.52338,793.55,956.8450221,0,58.722576,,21-Dec,236026,2018-07-23 23:10:45:984
8.8358,0.8847,-1.3312,0,43.808,42.52028,-83.52338,793.55,956.8450221,0,58.722576,,21-Dec,236529,2018-07-23 23:10:46:487
6.8881,0.8763,-0.4238,0,42.718,42.52028,-83.52338,793.55,956.8450221,0,58.722576,,21-Dec,237027,2018-07-23 23:10:46:985
6.5972,0.7937,-2.8383,0,41.677,42.52028,-83.52338,793.55,956.8450221,0,58.722576,,21-Dec,237526,2018-07-23 23:10:47:484
10.6757,-0.3891,-1.9932,0,48.463,42.52028,-83.52338,793.55,956.8450221,0,58.722576,,21-Dec,238028,2018-07-23 23:10:47:986
11.1019,-0.6871,-3.4357,0,44.029,42.52028,-83.52338,793.55,956.8450221,0,58.722576,,21-Dec,238527,2018-07-23 23:10:48:485
8.8741,0.8799,-2.6863,0,43.398,42.52028,-83.52338,793.55,956.8450221,0,58.722576,,21-Dec,239028,2018-07-23 23:10:48:986
9.7157,-0.4274,-0.4537,0,44.344,42.52028,-83.52338,793.55,956.8450221,0,58.722576,,21-Dec,239528,2018-07-23 23:10:49:486
7.1311,2.5151,-0.3436,0,43.022,42.52028,-83.52338,793.55,956.8450221,0,58.722576,,21-Dec,240026,2018-07-23 23:10:49:984
4.9225,0.2538,-2.0542,0,43.737,42.52028,-83.52338,793.55,956.8450221,0,58.722576,,21-Dec,240528,2018-07-23 23:10:50:486
6.2728,0.7254,-0.3196,0,50.656,42.52028,-83.52338,793.55,956.8450221,0,58.722576,,21-Mar,241026,2018-07-23 23:10:50:984
14.8716,0.5818,-4.555,0,46.91,42.52028,-83.52338,793.55,956.8450221,0,58.722576,,21-Mar,241527,2018-07-23 23:10:51:485
12.6965,-0.8368,-0.3867,0,45.532,42.52028,-83.52338,793.55,956.8450221,0,58.722576,,21-Mar,242026,2018-07-23 23:10:51:984
8.9292,-0.0287,-0.4046,0,51.152,42.52028,-83.52338,793.55,956.8450221,0,58.722576,,21-Mar,242526,2018-07-23 23:10:52:484
10.173,0.3053,1.0594,0,46.58,42.52028,-83.52338,793.55,956.8450221,0,58.722576,,21-Mar,243027,2018-07-23 23:10:52:985
7.2197,1.4473,3.5147,4,47.953,42.52028,-83.52338,793.55,956.8450221,0,58.722576,,21-Mar,243527,2018-07-23 23:10:53:485
5.8562,3.7266,4.4005,0,45.931,42.52028,-83.52338,793.55,956.8450221,0,58.722576,,21-Mar,244026,2018-07-23 23:10:53:984
4.7681,2.6779,1.3276,0,46.432,42.52028,-83.52338,793.55,956.8450221,0,58.722576,,21-Mar,244527,2018-07-23 23:10:54:485
8.9591,1.3958,-0.5495,0,45.796,42.52028,-83.52338,793.55,956.8450221,0,58.722576,,21-Mar,245027,2018-07-23 23:10:54:985
7.5465,1.9812,-2.2098,0,51.7,42.52028,-83.52338,793.55,956.8450221,0,58.722576,,21-Mar,245529,2018-07-23 23:10:55:487
8.7053,1.6472,-1.1097,0,46.065,42.52028,-83.52338,793.55,956.8450221,0,58.722576,,21-Mar,246026,2018-07-23 23:10:55:984
9.0094,1.1983,-2.1775,0,58.367,42.52028,-83.52338,793.55,956.8450221,0,58.722576,,21-Mar,246527,2018-07-23 23:10:56:485
8.5258,-1.4281,-1.8675,0,50.243,42.52028,-83.52338,793.55,956.8450221,0,58.722576,,21-Mar,247027,2018-07-23 23:10:56:985
11.0504,-0.4094,6.5086,0,44.889,42.52028,-83.52338,793.55,956.8450221,0,58.722576,,21-Mar,247526,2018-07-23 23:10:57:484
10.5919,-0.8176,3.7481,0,49.368,42.52028,-83.52338,793.55,956.8450221,0,58.722576,,21-Mar,248027,2018-07-23 23:10:57:985
8.4228,-0.0036,0.3508,0,45.674,42.52028,-83.52338,793.55,956.8450221,0,58.722576,,21-Mar,248529,2018-07-23 23:10:58:487
7.908,-1.1624,2.4541,0,47.896,42.52028,-83.52338,793.55,956.8450221,0,58.722576,,21-Nov,249027,2018-07-23 23:10:58:985
9.0106,-2.6791,2.8862,0,48.229,42.52028,-83.52338,793.55,956.8450221,0,58.722576,,21-Nov,249528,2018-07-23 23:10:59:486
11.4431,-3.6703,0.8356,0,47.031,42.52028,-83.52338,793.55,956.8450221,0,58.722576,,21-Nov,250027,2018-07-23 23:10:59:985
8.0098,-1.1109,1.8088,0,49.925,42.52028,-83.52338,793.55,956.8450221,0,58.722576,,21-Nov,250526,2018-07-23 23:11:00:484
8.1235,-3.4872,2.6013,0,49.04,42.52028,-83.52338,793.55,956.8450221,0,58.722576,,21-Nov,251027,2018-07-23 23:11:00:985
14.2491,-2.1201,5.272,0,50.476,42.52028,-83.52338,793.55,956.8450221,0,58.722576,,21-Nov,251527,2018-07-23 23:11:01:485
16.2363,-10.9116,5.2601,0,52.091,42.52028,-83.52338,793.55,956.8450221,0,58.722576,,21-Nov,252026,2018-07-23 23:11:01:984
8.91,-1.4545,1.5155,0,51.096,42.52028,-83.52338,793.55,956.8450221,0,58.722576,,21-Nov,252527,2018-07-23 23:11:02:485
7.2101,-0.0706,1.4425,0,52.254,42.52028,-83.52338,793.55,956.8450221,0,58.722576,,21-Nov,253027,2018-07-23 23:11:02:985
4.853,-0.334,-0.0227,0,53.282,42.52028,-83.52338,793.55,956.8450221,0,58.722576,,21-Nov,253527,2018-07-23 23:11:03:485
6.7552,-0.832,1.1624,0,53.818,42.52028,-83.52338,793.55,956.8450221,0,58.722576,,21-Nov,254028,2018-07-23 23:11:03:986
12.6294,-5.3762,2.3906,0,53.047,42.52028,-83.52338,793.55,956.8450221,0,58.722576,,21-Nov,254526,2018-07-23 23:11:04:484
6.5685,-1.3623,-2.0937,0,54.269,42.52028,-83.52338,793.55,956.8450221,0,58.722576,,21-Nov,255027,2018-07-23 23:11:04:985
5.1822,0.7578,-1.0211,0,64.462,42.52028,-83.52338,793.55,956.8450221,0,58.722576,,21-Nov,255527,2018-07-23 23:11:05:485
6.8941,-2.4421,-0.1592,0,61.635,42.52028,-83.52338,793.55,956.8450221,0,58.722576,,21-Sep,256028,2018-07-23 23:11:05:986
8.1427,1.6604,-0.6788,0,57.36,42.52028,-83.52338,793.55,956.8450221,0,58.722576,,21-Sep,256527,2018-07-23 23:11:06:485
18.6736,-9.0525,13.9307,0,56.637,42.52028,-83.52338,793.55,956.8450221,0,58.722576,,21-Sep,257027,2018-07-23 23:11:06:985
10.1706,0.3172,-0.2682,0,53.665,42.52028,-83.52338,793.55,956.8450221,0,58.722576,,21-Sep,257528,2018-07-23 23:11:07:486
7.3957,3.9768,0.2418,0,54.344,42.52028,-83.52338,793.55,956.8450221,0,58.722576,,21-Sep,258027,2018-07-23 23:11:07:985
7.2772,0.929,-2.6588,0,49.712,42.52028,-83.52338,793.55,956.8450221,0,58.722576,,21-Sep,258527,2018-07-23 23:11:08:485
11.8453,0.6213,5.2828,0,48.875,42.52028,-83.52338,793.55,956.8450221,0,58.722576,,21-Sep,259027,2018-07-23 23:11:08:985
10.8769,1.1001,-0.9445,0,48.486,42.52028,-83.52338,793.55,956.8450221,0,58.722576,,21-Sep,259526,2018-07-23 23:11:09:484
9.6055,2.1715,-1.0654,0,48.171,42.52028,-83.52338,793.55,956.8450221,0,58.722576,,21-Sep,260027,2018-07-23 23:11:09:985
8.9172,3.1137,-0.4836,0,48.921,42.52028,-83.52338,793.55,956.8450221,0,58.722576,,21-Sep,260527,2018-07-23 23:11:10:485
10.6805,-0.2358,2.2924,0,47.622,42.52028,-83.52338,793.55,956.8450221,0,58.722576,,21-Sep,261026,2018-07-23 23:11:10:984
8.2061,9.9838,-4.0151,0,47.541,42.52028,-83.52338,793.55,956.8450221,0,58.722576,,21-Sep,261527,2018-07-23 23:11:11:485
6.6355,7.3466,-1.306,0,48.171,42.52028,-83.52338,793.55,956.8450221,0,58.722576,,21-Sep,262026,2018-07-23 23:11:11:984
9.262,4.6232,-7.3658,0,47.279,42.52028,-83.52338,793.55,956.8450221,0,58.722576,,21-Sep,262527,2018-07-23 23:11:12:485
8.4623,3.134,0.0874,0,47.059,42.52028,-83.52338,793.55,956.8450221,0,58.722576,,21-Sep,263026,2018-07-23 23:11:12:984
13.6757,-0.2418,-2.1907,0,52.249,42.52028,-83.52338,793.55,956.8450221,0,58.722576,,21-Sep,263527,2018-07-23 23:11:13:485
8.0852,0.8523,-1.1396,0,45.457,42.52028,-83.52338,793.55,956.8450221,0,58.722576,,21-Sep,264027,2018-07-23 23:11:13:985
7.677,3.4536,1.883,0,46.267,42.52028,-83.52338,793.55,956.8450221,0,58.722576,,21-Sep,264526,2018-07-23 23:11:14:484
6.4823,-1.8615,5.3211,0,46.347,42.52028,-83.52338,793.55,956.8450221,0,58.722576,,14 / 21,265027,2018-07-23 23:11:14:985
9.8749,0.8643,1.2833,0,46.524,42.52028,-83.52338,793.55,956.8450221,0,58.722576,,14 / 21,265526,2018-07-23 23:11:15:484
8.0445,1.3336,0.6764,0,45.58,42.520393,-83.523445,800,956.8450221,4.25,58.722576,322.9,14 / 20,266027,2018-07-23 23:11:15:985
7.7129,0.8176,2.9772,0,45.897,42.520393,-83.523445,800,957.8287334,4.25,58.722576,322.9,14 / 20,266529,2018-07-23 23:11:16:487
12.4487,-4.7621,3.3555,0,45.209,42.520393,-83.523445,800,957.8287334,4.25,58.722576,322.9,14 / 20,267027,2018-07-23 23:11:16:985
8.3294,0.9194,1.555,0,45.452,42.520393,-83.523445,800,957.8287334,4.25,58.722576,322.9,14 / 20,267528,2018-07-23 23:11:17:486
11.6837,3.6751,-0.9625,0,45.331,42.520393,-83.523445,800,957.8287334,4.25,58.722576,322.9,14 / 20,268027,2018-07-23 23:11:17:985
6.3339,2.8994,1.6819,0,46.055,42.520393,-83.523445,800,957.8287334,4.25,58.722576,322.9,14 / 20,268528,2018-07-23 23:11:18:486
11.5125,0.7123,-4.3886,0,45.103,42.520393,-83.523445,800,957.8287334,4.25,58.722576,322.9,14 / 20,269028,2018-07-23 23:11:18:986
7.2221,-1.2605,2.0614,0,44.924,42.520393,-83.523445,800,957.8287334,4.25,58.722576,322.9,14 / 20,269527,2018-07-23 23:11:19:485
7.8554,4.7214,3.2202,0,44.145,42.520393,-83.523445,800,957.8287334,4.25,58.722576,322.9,14 / 20,270029,2018-07-23 23:11:19:987
7.112,1.5467,4.3993,0,45.083,42.520393,-83.523445,800,957.8287334,4.25,58.722576,322.9,14 / 20,270527,2018-07-23 23:11:20:485
10.823,3.7936,1.5862,0,44.765,42.520393,-83.523445,800,957.8287334,4.25,58.722576,322.9,14 / 20,271026,2018-07-23 23:11:20:984
7.8063,0.9134,1.3048,0,47.803,42.520393,-83.523445,800,957.8287334,4.25,58.722576,322.9,14 / 20,271528,2018-07-23 23:11:21:486
7.8518,2.4756,1.6568,0,45.649,42.520393,-83.523445,800,957.8287334,4.25,58.722576,322.9,14 / 20,272027,2018-07-23 23:11:21:985
11.7076,1.7669,0.8392,0,45.104,42.520393,-83.523445,800,957.8287334,4.25,58.722576,322.9,14 / 20,272528,2018-07-23 23:11:22:486
7.9571,2.6504,1.7502,0,44.777,42.520393,-83.523445,800,957.8287334,4.25,58.722576,322.9,13 / 21,273027,2018-07-23 23:11:22:985
8.6586,1.8926,0.2562,0,47.284,42.520393,-83.523445,800,957.8287334,4.25,58.722576,322.9,13 / 21,273528,2018-07-23 23:11:23:486
12.542,-0.6476,-4.0402,0,44.506,42.520393,-83.523445,800,957.8287334,4.25,58.722576,322.9,13 / 21,274026,2018-07-23 23:11:23:984
8.3606,0.2502,-0.3256,0,48.078,42.520393,-83.523445,800,957.8287334,4.25,58.722576,322.9,13 / 21,274527,2018-07-23 23:11:24:485
9.7109,-1.4832,0.9984,0,44.939,42.52057,-83.5236,796.77,957.8287334,4.18,34.254837,276.6,13 / 21,275026,2018-07-23 23:11:24:984
11.1546,3.5255,6.8378,0,44.203,42.52057,-83.5236,796.77,957.8287334,4.18,34.254837,276.6,13 / 21,275527,2018-07-23 23:11:25:485
10.7392,0.2729,0.1389,0,44.046,42.52057,-83.5236,796.77,957.8287334,4.18,34.254837,276.6,13 / 21,276027,2018-07-23 23:11:25:985
10.1682,-1.7777,1.8232,0,45.723,42.52057,-83.5236,796.77,957.8287334,4.18,34.254837,276.6,13 / 21,276527,2018-07-23 23:11:26:485
9.2763,1.6328,4.8674,0,45.477,42.52057,-83.5236,796.77,957.8287334,4.18,34.254837,276.6,13 / 21,277027,2018-07-23 23:11:26:985
11.1869,1.0606,1.1827,0,49.708,42.52057,-83.5236,796.77,957.8287334,4.18,34.254837,276.6,13 / 21,277527,2018-07-23 23:11:27:485
9.8964,-2.0195,1.7238,0,48.233,42.52057,-83.5236,796.77,957.8287334,4.18,34.254837,276.6,13 / 21,278029,2018-07-23 23:11:27:987
9.2883,1.8483,5.1451,0,44.626,42.52057,-83.5236,796.77,957.8287334,4.18,34.254837,276.6,13 / 21,278528,2018-07-23 23:11:28:486
9.8294,1.5359,0.3029,0,46.651,42.52057,-83.5236,796.77,957.8287334,4.18,34.254837,276.6,13 / 21,279028,2018-07-23 23:11:28:986
9.7432,-1.4664,2.3164,0,47.24,42.52057,-83.5236,796.77,957.8287334,4.18,34.254837,276.6,13 / 21,279528,2018-07-23 23:11:29:486
11.2767,1.5263,3.2094,0,43.557,42.52057,-83.5236,796.77,957.8287334,4.18,34.254837,276.6,13 / 21,280029,2018-07-23 23:11:29:987
9.7683,0.2514,0.9457,0,46.182,42.52057,-83.5236,796.77,957.8287334,4.18,34.254837,276.6,13 / 21,280529,2018-07-23 23:11:30:487
10.0185,-1.4425,1.4569,0,44.806,42.52057,-83.5236,796.77,957.8287334,4.18,34.254837,276.6,13 / 21,281028,2018-07-23 23:11:30:986
9.1638,1.3192,4.0701,0,45.018,42.52057,-83.5236,796.77,957.8287334,4.18,34.254837,276.6,13 / 21,281526,2018-07-23 23:11:31:484
11.2647,0.9661,0.2873,0,44.277,42.52057,-83.5236,796.77,957.8287334,4.18,34.254837,276.6,17 / 21,282026,2018-07-23 23:11:31:984
9.4176,-0.1437,2.1332,0,48.956,42.52057,-83.5236,796.77,957.8287334,4.18,34.254837,276.6,17 / 21,282527,2018-07-23 23:11:32:485
7.5513,-1.3886,2.5654,0,44.829,42.52057,-83.5236,796.77,957.8287334,4.18,34.254837,276.6,17 / 21,283027,2018-07-23 23:11:32:985
12.0297,0.8847,-0.6105,0,45.488,42.52057,-83.5236,796.77,957.8287334,4.18,34.254837,276.6,17 / 21,283527,2018-07-23 23:11:33:485
6.2273,0.7997,-0.1856,0,50.447,42.52057,-83.5236,796.77,957.8287334,4.18,34.254837,276.6,17 / 21,284028,2018-07-23 23:11:33:986
10.2113,-3.48,-1.1205,0,45.125,42.52057,-83.5236,796.77,957.8287334,4.18,34.254837,276.6,17 / 21,284527,2018-07-23 23:11:34:485
12.1242,2.6097,2.4289,0,44.806,42.52057,-83.5236,796.77,957.8287334,4.18,34.254837,276.6,17 / 21,285027,2018-07-23 23:11:34:985
9.153,-1.6161,0.99,0,47.514,42.52057,-83.5236,796.77,957.8287334,4.18,34.254837,276.6,17 / 21,285528,2018-07-23 23:11:35:486
9.8617,0.2107,2.7809,0,45.621,42.52057,-83.5236,796.77,957.8287334,4.18,34.254837,276.6,17 / 21,286027,2018-07-23 23:11:35:985
11.1941,0.4393,1.093,0,45.747,42.52057,-83.5236,796.77,957.8287334,4.18,34.254837,276.6,17 / 21,286529,2018-07-23 23:11:36:487
8.3917,0.9002,0.48,0,46.48,42.52057,-83.5236,796.77,957.8287334,4.18,34.254837,276.6,17 / 21,287027,2018-07-23 23:11:36:985
9.9443,2.2122,2.0123,0,46.105,42.52057,-83.5236,796.77,957.8287334,4.18,34.254837,276.6,17 / 21,287527,2018-07-23 23:11:37:485
10.477,-1.6281,5.4312,0,44.734,42.52057,-83.5236,796.77,957.8287334,4.18,34.254837,276.6,17 / 21,288027,2018-07-23 23:11:37:985
8.831,-0.1006,-0.2825,0,47.084,42.52057,-83.5236,796.77,957.8287334,4.18,34.254837,276.6,17 / 21,288527,2018-07-23 23:11:38:485
9.7229,1.1181,1.9237,0,46.193,42.52057,-83.5236,796.77,957.8287334,4.18,34.254837,276.6,17 / 21,289026,2018-07-23 23:11:38:984
13.1202,0.5375,3.4644,0,47.122,42.52057,-83.5236,796.77,957.8287334,4.18,34.254837,276.6,17 / 21,289528,2018-07-23 23:11:39:486
10.2615,0.498,2.405,0,46.328,42.52057,-83.5236,796.77,957.8287334,4.18,34.254837,276.6,21-Sep,290026,2018-07-23 23:11:39:984
8.8813,0.9062,2.1823,0,45.335,42.52057,-83.5236,796.77,957.8287334,4.18,34.254837,276.6,21-Sep,290528,2018-07-23 23:11:40:486
9.1901,-3.5111,6.3698,0,45.804,42.52051,-83.52372,819.35,957.8287334,2.48,53.829033,227.3,21-Sep,291026,2018-07-23 23:11:40:984
9.8354,0.3508,0.4202,0,46.491,42.52051,-83.52372,819.35,957.8287334,2.48,53.829033,227.3,21-Sep,291528,2018-07-23 23:11:41:486
8.442,1.8423,0.5926,0,45.88,42.52051,-83.52372,819.35,957.8287334,2.48,53.829033,227.3,21-Sep,292028,2018-07-23 23:11:41:986
7.7309,-2.7509,6.0908,0,46.472,42.52051,-83.52372,819.35,957.8287334,2.48,53.829033,227.3,21-Sep,292526,2018-07-23 23:11:42:484
12.7336,-2.9628,-0.3364,0,45.813,42.52051,-83.52372,819.35,957.8287334,2.48,53.829033,227.3,21-Sep,293029,2018-07-23 23:11:42:987
8.4922,0.8703,0.7219,0,46.02,42.52051,-83.52372,819.35,957.8287334,2.48,53.829033,227.3,21-Sep,293527,2018-07-23 23:11:43:485
8.6036,-1.1803,0.4238,0,47.909,42.52051,-83.52372,819.35,957.8287334,2.48,53.829033,227.3,21-Sep,294027,2018-07-23 23:11:43:985
13.2974,0.2095,4.2198,0,49.257,42.52051,-83.52372,819.35,957.8287334,2.48,53.829033,227.3,21-Sep,294528,2018-07-23 23:11:44:486
9.5253,-0.6369,1.391,0,45.62,42.52051,-83.52372,819.35,957.8287334,2.48,53.829033,227.3,21-Sep,295027,2018-07-23 23:11:44:985
10.0437,-2.4062,1.0271,0,45.697,42.52051,-83.52372,819.35,957.8287334,2.48,53.829033,227.3,21-Sep,295528,2018-07-23 23:11:45:486
6.596,-0.6404,4.6579,0,44.809,42.52051,-83.52372,819.35,957.8287334,2.48,53.829033,227.3,21-Sep,296028,2018-07-23 23:11:45:986
10.3765,0.5195,1.6915,0,46.777,42.52051,-83.52372,819.35,957.8287334,2.48,53.829033,227.3,21-Sep,296527,2018-07-23 23:11:46:485
8.5078,0.3232,1.664,0,48.587,42.52051,-83.52372,819.35,957.8287334,2.48,53.829033,227.3,21-Sep,297028,2018-07-23 23:11:46:986
8.0302,-1.5897,3.055,0,46.704,42.52051,-83.52372,819.35,957.8287334,2.48,53.829033,227.3,21-Sep,297527,2018-07-23 23:11:47:485
13.3704,2.138,0.1305,0,50.065,42.52051,-83.52372,819.35,957.8287334,2.48,53.829033,227.3,14 / 21,298027,2018-07-23 23:11:47:985
8.9435,-1.7382,0.7458,0,47.453,42.52051,-83.52372,819.35,957.8287334,2.48,53.829033,227.3,14 / 21,298528,2018-07-23 23:11:48:486
8.0996,1.4844,0.1065,0,45.836,42.52051,-83.52372,819.35,957.8287334,2.48,53.829033,227.3,14 / 21,299026,2018-07-23 23:11:48:984
9.9288,0.3687,-0.4812,0,46.34,42.52051,-83.52372,819.35,957.8287334,2.48,53.829033,227.3,14 / 21,299526,2018-07-23 23:11:49:484
9.2344,1.3755,0.1903,0,48.012,42.52051,-83.52372,819.35,957.8287334,2.48,53.829033,227.3,14 / 21,300027,2018-07-23 23:11:49:985
9.4607,-0.7973,1.6652,0,45.849,42.52051,-83.52372,819.35,957.8287334,2.48,53.829033,227.3,14 / 21,300528,2018-07-23 23:11:50:486
13.1633,0.3472,0.8284,0,45.867,42.52051,-83.52372,819.35,957.8287334,2.48,53.829033,227.3,14 / 21,301027,2018-07-23 23:11:50:985
8.9783,1.2881,-0.5866,0,49.034,42.52051,-83.52372,819.35,957.8287334,2.48,53.829033,227.3,14 / 21,301526,2018-07-23 23:11:51:484
10.0724,0.9481,2.2266,0,47.831,42.52051,-83.52372,819.35,957.8287334,2.48,53.829033,227.3,14 / 21,302029,2018-07-23 23:11:51:987
11.066,3.796,2.466,0,47.386,42.52051,-83.52372,819.35,957.8287334,2.48,53.829033,227.3,14 / 21,302526,2018-07-23 23:11:52:484
9.1854,0.7757,1.1744,0,46.061,42.52051,-83.52372,819.35,957.8287334,2.48,53.829033,227.3,14 / 21,303029,2018-07-23 23:11:52:987
10.4567,5.3044,-2.3966,0,46.633,42.52051,-83.52372,819.35,957.8287334,2.48,53.829033,227.3,14 / 21,303527,2018-07-23 23:11:53:485
11.4874,-2.047,-0.7159,0,47.266,42.52051,-83.52372,819.35,957.8287334,2.48,53.829033,227.3,14 / 21,304027,2018-07-23 23:11:53:985
7.9823,-2.6049,-1.6221,0,47.667,42.52051,-83.52372,819.35,957.8287334,2.48,53.829033,227.3,14 / 21,304528,2018-07-23 23:11:54:486
8.5293,-1.1971,2.9568,0,48.221,42.52051,-83.52372,819.35,957.8287334,2.48,53.829033,227.3,14 / 21,305027,2018-07-23 23:11:54:985
12.8281,0.413,1.962,0,46.934,42.52051,-83.52372,819.35,957.8287334,2.48,53.829033,227.3,14 / 21,305527,2018-07-23 23:11:55:485
8.4934,0.4992,1.9273,0,47.034,42.52051,-83.52372,819.35,957.8287334,2.48,53.829033,227.3,15 / 21,306027,2018-07-23 23:11:55:985
7.6375,-2.2637,0.255,0,45.809,42.52051,-83.52372,819.35,957.8287334,2.48,53.829033,227.3,15 / 21,306527,2018-07-23 23:11:56:485
12.7611,0.267,-1.0391,0,46.185,42.52054,-83.523895,819.35,957.8287334,4.28,48.935486,303,15 / 21,307026,2018-07-23 23:11:56:984
8.0984,0.2167,0.8643,0,48.22,42.52054,-83.523895,819.35,957.8287334,4.28,48.935486,303,15 / 21,307526,2018-07-23 23:11:57:484
8.734,0.5507,2.0279,0,47.703,42.52054,-83.523895,819.35,957.8287334,4.28,48.935486,303,15 / 21,308027,2018-07-23 23:11:57:985
13.3584,1.0259,0.7925,0,46.223,42.52054,-83.523895,819.35,957.8287334,4.28,48.935486,303,15 / 21,308527,2018-07-23 23:11:58:485
8.436,-0.2286,1.4365,0,47.049,42.52054,-83.523895,819.35,957.8287334,4.28,48.935486,303,15 / 21,309026,2018-07-23 23:11:58:984
7.7788,1.5048,3.7541,0,47.025,42.52054,-83.523895,819.35,957.8287334,4.28,48.935486,303,15 / 21,309526,2018-07-23 23:11:59:484
13.7212,0.8188,3.3998,0,46.686,42.52054,-83.523895,819.35,957.8287334,4.28,48.935486,303,15 / 21,310027,2018-07-23 23:11:59:985
8.6024,-0.6847,0.5914,0,47.69,42.52054,-83.523895,819.35,957.8287334,4.28,48.935486,303,15 / 21,310527,2018-07-23 23:12:00:485
9.2308,1.0271,0.2658,0,47.606,42.52054,-83.523895,819.35,957.8287334,4.28,48.935486,303,15 / 21,311027,2018-07-23 23:12:00:985
12.0285,0.0239,-1.3396,0,44.797,42.52054,-83.523895,819.35,957.8287334,4.28,48.935486,303,15 / 21,311527,2018-07-23 23:12:01:485
8.503,1.1839,-1.397,0,46.988,42.52054,-83.523895,819.35,957.8287334,4.28,48.935486,303,15 / 21,312028,2018-07-23 23:12:01:986
9.6905,0.6249,1.2833,0,46.863,42.52054,-83.523895,819.35,957.8287334,4.28,48.935486,303,15 / 21,312527,2018-07-23 23:12:02:485
8.1008,-0.8871,3.4213,0,46.605,42.52054,-83.523895,819.35,957.8287334,4.28,48.935486,303,15 / 21,313026,2018-07-23 23:12:02:984
8.4372,-0.6213,-0.9577,0,44.605,42.52054,-83.523895,819.35,957.8287334,4.28,48.935486,303,15 / 21,313528,2018-07-23 23:12:03:486
9.9,0.1018,1.0139,0,45.627,42.52054,-83.523895,819.35,957.8287334,4.28,48.935486,303,16 / 23,314027,2018-07-23 23:12:03:985
13.1645,-0.1963,-0.923,0,46.361,42.52054,-83.523895,819.35,957.8287334,4.28,48.935486,303,16 / 23,314526,2018-07-23 23:12:04:484
8.4886,-0.6093,0.1269,0,46.353,42.52054,-83.523895,819.35,957.8287334,4.28,48.935486,303,16 / 23,315027,2018-07-23 23:12:04:985
8.6574,-0.723,2.7426,0,44.906,42.52054,-83.523895,819.35,957.8287334,4.28,48.935486,303,16 / 23,315527,2018-07-23 23:12:05:485
12.5815,1.3048,-1.9644,0,43.64,42.52054,-83.523895,819.35,957.8287334,4.28,48.935486,303,16 / 23,316027,2018-07-23 23:12:05:985
8.3582,-0.073,0.2861,0,52.036,42.52054,-83.523895,819.35,957.8287334,4.28,48.935486,303,16 / 23,316527,2018-07-23 23:12:06:485
10.3286,0.3543,0.1748,0,48.309,42.52054,-83.523895,819.35,957.8287334,4.28,48.935486,303,16 / 23,317026,2018-07-23 23:12:06:984
12.9957,1.7801,-2.6971,0,44.678,42.52054,-83.523895,819.35,957.8287334,4.28,48.935486,303,16 / 23,317529,2018-07-23 23:12:07:487
8.5353,0.2071,-0.1951,0,42.716,42.52054,-83.523895,819.35,957.8287334,4.28,48.935486,303,16 / 23,318026,2018-07-23 23:12:07:984
8.2001,-0.3364,3.3028,0,45.68,42.52054,-83.523895,819.35,957.8287334,4.28,48.935486,303,16 / 23,318528,2018-07-23 23:12:08:486
12.5229,-0.1568,-1.2366,0,44.108,42.52054,-83.523895,819.35,957.8287334,4.28,48.935486,303,16 / 23,319027,2018-07-23 23:12:08:985
8.1989,0.2466,0.9864,0,43.535,42.52054,-83.523895,819.35,957.8287334,4.28,48.935486,303,16 / 23,319526,2018-07-23 23:12:09:484
8.0541,0.6105,3.8894,0,42.953,42.52054,-83.523895,819.35,957.8287334,4.28,48.935486,303,16 / 23,320029,2018-07-23 23:12:09:987
13.1047,0.5004,-0.8021,0,44.064,42.52054,-83.523895,819.35,957.8287334,4.28,48.935486,303,16 / 23,320527,2018-07-23 23:12:10:485
8.1882,-1.1229,0.8236,0,43.336,42.52054,-83.523895,819.35,957.8287334,4.28,48.935486,303,16 / 23,321026,2018-07-23 23:12:10:984
7.252,-1.1708,3.2729,0,44.428,42.52054,-83.523895,819.35,957.8287334,4.28,48.935486,303,16 / 23,321527,2018-07-23 23:12:11:485
11.4108,-1.4928,-1.8364,0,44.97,42.52054,-83.523895,819.35,957.8287334,4.28,48.935486,303,16 / 23,322028,2018-07-23 23:12:11:986
8.1762,-3.9361,0.1329,0,46.553,42.52054,-83.523895,819.35,957.8287334,4.28,48.935486,303,16 / 23,322527,2018-07-23 23:12:12:485
8.9986,-4.5921,-0.972,0,46.899,42.52054,-83.523895,819.35,957.8287334,4.28,48.935486,303,17 / 22,323027,2018-07-23 23:12:12:985
8.0936,-5.5749,-1.1265,0,44.061,42.52054,-83.523895,819.35,957.8287334,4.28,48.935486,303,17 / 22,323526,2018-07-23 23:12:13:484
8.3857,-4.9668,-0.7853,0,43.331,42.520603,-83.52411,841.94,957.8287334,0,44.041935,,17 / 22,324027,2018-07-23 23:12:13:985
8.57,-4.5023,-0.3232,0,44.739,42.520603,-83.52411,841.94,957.8287334,0,44.041935,,17 / 22,324527,2018-07-23 23:12:14:485
8.4922,-4.543,-0.9708,0,44.08,42.520603,-83.52411,841.94,957.8287334,0,44.041935,,17 / 22,325028,2018-07-23 23:12:14:986
8.7017,-4.3766,-0.559,0,43.389,42.520603,-83.52411,841.94,957.8287334,0,44.041935,,17 / 22,325526,2018-07-23 23:12:15:484
8.5174,-4.5334,-0.7362,0,42.599,42.520603,-83.52411,841.94,957.8287334,0,44.041935,,17 / 22,326027,2018-07-23 23:12:15:985
8.5162,-4.4353,-0.7697,0,45.285,42.520603,-83.52411,841.94,957.8287334,0,44.041935,,17 / 22,326527,2018-07-23 23:12:16:485
8.4886,-4.7477,-0.6201,1,45.105,42.520603,-83.52411,841.94,957.8287334,0,44.041935,,17 / 22,327027,2018-07-23 23:12:16:985
8.7807,-4.0306,-0.0934,3,46.9,42.520603,-83.52411,841.94,957.8287334,0,44.041935,,17 / 22,327527,2018-07-23 23:12:17:485
8.9998,-3.9181,-0.5076,4,49.451,42.520603,-83.52411,841.94,957.8287334,0,44.041935,,17 / 22,328026,2018-07-23 23:12:17:984
9.1183,-3.7134,-0.9014,1,49.709,42.520603,-83.52411,841.94,957.8287334,0,44.041935,,17 / 22,328527,2018-07-23 23:12:18:485
9.7264,-2.3571,0.012,0,51.185,42.520603,-83.52411,841.94,957.8287334,0,44.041935,,17 / 22,329028,2018-07-23 23:12:18:986
7.4974,-0.4381,-2.733,0,50.554,42.520603,-83.52411,841.94,957.8287334,0,44.041935,,17 / 22,329527,2018-07-23 23:12:19:485
10.3477,0.4956,0.2155,0,50.468,42.520603,-83.52411,841.94,957.8287334,0,44.041935,,17 / 22,330029,2018-07-23 23:12:19:987
10.2508,-1.9489,0.4764,0,50.687,42.520603,-83.52411,841.94,957.8287334,0,44.041935,,17 / 22,330528,2018-07-23 23:12:20:486
11.2516,-1.3396,1.5383,0,47.519,42.520603,-83.52411,841.94,957.8287334,0,44.041935,,14 / 23,331027,2018-07-23 23:12:20:985
8.3306,-0.2693,0.5016,0,47.303,42.520603,-83.52411,841.94,957.8287334,0,44.041935,,14 / 23,331529,2018-07-23 23:12:21:487
9.2201,-2.3858,2.1703,0,45.804,42.520603,-83.52411,841.94,957.8287334,0,44.041935,,14 / 23,332026,2018-07-23 23:12:21:984
10.3106,-0.9349,0.0455,0,44.766,42.520603,-83.52411,841.94,957.8287334,0,44.041935,,14 / 23,332527,2018-07-23 23:12:22:485
9.2177,0.5902,-1.804,0,45.463,42.520603,-83.52411,841.94,957.8287334,0,44.041935,,14 / 23,333027,2018-07-23 23:12:22:985
9.4882,-1.2055,2.4672,0,44.69,42.520603,-83.52411,841.94,957.8287334,0,44.041935,,14 / 23,333527,2018-07-23 23:12:23:485
9.2416,-2.3308,-1.4533,0,44.192,42.520603,-83.52411,841.94,957.8287334,0,44.041935,,14 / 23,334027,2018-07-23 23:12:23:985
9.4344,2.5702,-2.0949,0,47.347,42.520603,-83.52411,841.94,957.8287334,0,44.041935,,14 / 23,334526,2018-07-23 23:12:24:484
10.9607,-1.5658,1.8316,0,43.225,42.520603,-83.52411,841.94,957.8287334,0,44.041935,,14 / 23,335027,2018-07-23 23:12:24:985
8.5425,-0.65,-0.3926,0,42.8,42.520603,-83.52411,841.94,957.8287334,0,44.041935,,14 / 23,335527,2018-07-23 23:12:25:485
8.9519,-0.5435,3.7864,0,42.321,42.520603,-83.52411,841.94,957.8287334,0,44.041935,,14 / 23,336027,2018-07-23 23:12:25:985
12.2404,-1.1265,-1.7526,0,42.442,42.520603,-83.52411,841.94,957.8287334,0,44.041935,,14 / 23,336528,2018-07-23 23:12:26:486
8.9818,-1.8208,0.9421,0,42.24,42.520603,-83.52411,841.94,957.8287334,0,44.041935,,14 / 23,337026,2018-07-23 23:12:26:984
8.752,-0.0922,1.488,0,42.505,42.520603,-83.52411,841.94,957.8287334,0,44.041935,,14 / 23,337527,2018-07-23 23:12:27:485
10.0628,0.1425,-1.6472,0,43.15,42.520603,-83.52411,841.94,957.8287334,0,44.041935,,14 / 23,338027,2018-07-23 23:12:27:985
9.1087,-2.1991,-2.788,0,42.961,42.520603,-83.52411,841.94,957.8287334,0,44.041935,,14 / 23,338526,2018-07-23 23:12:28:484
10.5596,-2.8012,-4.4317,0,43.468,42.520603,-83.52411,841.94,957.8287334,0,44.041935,,16 / 23,339028,2018-07-23 23:12:28:986
8.2995,0.0419,0.2921,0,42.332,42.520603,-83.52411,841.94,957.8287334,0,44.041935,,16 / 23,339526,2018-07-23 23:12:29:484
9.1937,-2.7222,2.296,0,41.138,42.520695,-83.5241,822.58,957.8287334,2.7,29.361288,279.2,16 / 23,340027,2018-07-23 23:12:29:985
11.0959,-1.9632,-2.1272,0,40.372,42.520695,-83.5241,822.58,957.8287334,2.7,29.361288,279.2,16 / 23,340529,2018-07-23 23:12:30:487
8.6131,-0.9313,-0.5279,0,43.158,42.520695,-83.5241,822.58,957.8287334,2.7,29.361288,279.2,16 / 23,341026,2018-07-23 23:12:30:984
7.6782,-1.3372,3.5793,0,43.611,42.520695,-83.5241,822.58,957.8287334,2.7,29.361288,279.2,16 / 23,341528,2018-07-23 23:12:31:486
9.8701,-0.9972,-1.7992,0,43.592,42.520695,-83.5241,822.58,957.8287334,2.7,29.361288,279.2,16 / 23,342027,2018-07-23 23:12:31:985
9.6139,-2.0135,-0.0263,0,41.787,42.520695,-83.5241,822.58,957.8287334,2.7,29.361288,279.2,16 / 23,342526,2018-07-23 23:12:32:484
11.376,-1.0008,-1.9345,0,41.839,42.520695,-83.5241,822.58,957.8287334,2.7,29.361288,279.2,16 / 23,343029,2018-07-23 23:12:32:987
8.7376,-0.0503,0.0563,0,42.152,42.520695,-83.5241,822.58,957.8287334,2.7,29.361288,279.2,16 / 23,343527,2018-07-23 23:12:33:485
8.7652,-0.018,3.553,0,41.651,42.520695,-83.5241,822.58,957.8287334,2.7,29.361288,279.2,16 / 23,344029,2018-07-23 23:12:33:987
11.3174,-1.7873,-2.2721,0,43.555,42.520695,-83.5241,822.58,957.8287334,2.7,29.361288,279.2,16 / 23,344526,2018-07-23 23:12:34:484
8.764,0.7494,-0.0227,0,42.644,42.520695,-83.5241,822.58,957.8287334,2.7,29.361288,279.2,16 / 23,345027,2018-07-23 23:12:34:985
8.8717,-1.2043,0.1305,0,40.772,42.520695,-83.5241,822.58,957.8287334,2.7,29.361288,279.2,16 / 23,345527,2018-07-23 23:12:35:485
10.6769,-0.4956,-0.4453,0,40.129,42.520695,-83.5241,822.58,957.8287334,2.7,29.361288,279.2,16 / 23,346027,2018-07-23 23:12:35:985
10.0844,-2.7497,-2.3463,0,42.897,42.520695,-83.5241,822.58,957.8287334,2.7,29.361288,279.2,16 / 23,346527,2018-07-23 23:12:36:485
10.3513,0.267,1.5802,0,41.55,42.520695,-83.5241,822.58,957.8287334,2.7,29.361288,279.2,14 / 23,347027,2018-07-23 23:12:36:985
8.6383,-1.8519,-1.1013,0,43.563,42.520695,-83.5241,822.58,957.8287334,2.7,29.361288,279.2,14 / 23,347526,2018-07-23 23:12:37:484
8.7771,-2.1536,3.626,0,42.132,42.520695,-83.5241,822.58,957.8287334,2.7,29.361288,279.2,14 / 23,348027,2018-07-23 23:12:37:985
10.5477,-1.3156,-0.8655,0,41.045,42.520695,-83.5241,822.58,957.8287334,2.7,29.361288,279.2,14 / 23,348527,2018-07-23 23:12:38:485
9.3326,0.9409,-2.375,0,40.854,42.520695,-83.5241,822.58,957.8287334,2.7,29.361288,279.2,14 / 23,349027,2018-07-23 23:12:38:985
9.0249,-2.2589,2.5163,0,40.205,42.520695,-83.5241,822.58,957.8287334,2.7,29.361288,279.2,14 / 23,349526,2018-07-23 23:12:39:484
7.2233,-0.0311,-2.2781,0,42.041,42.520695,-83.5241,822.58,957.8287334,2.7,29.361288,279.2,14 / 23,350027,2018-07-23 23:12:39:985
10.8996,-0.8356,1.6771,0,39.775,42.520695,-83.5241,822.58,957.8287334,2.7,29.361288,279.2,14 / 23,350526,2018-07-23 23:12:40:484
10.416,-1.2414,-2.3595,0,38.948,42.520695,-83.5241,822.58,957.8287334,2.7,29.361288,279.2,14 / 23,351028,2018-07-23 23:12:40:986
9.3841,-3.1268,0.5626,0,44.562,42.520695,-83.5241,822.58,957.8287334,2.7,29.361288,279.2,14 / 23,351526,2018-07-23 23:12:41:484
9.3314,-0.3879,0.8523,1,39.37,42.520695,-83.5241,822.58,957.8287334,2.7,29.361288,279.2,14 / 23,352027,2018-07-23 23:12:41:985
9.4619,-0.1879,1.8244,1,38.515,42.520695,-83.5241,822.58,957.8287334,2.7,29.361288,279.2,14 / 23,352527,2018-07-23 23:12:42:485
6.9564,-4.5633,5.0673,0,38.483,42.520695,-83.5241,822.58,957.8287334,2.7,29.361288,279.2,14 / 23,353027,2018-07-23 23:12:42:985
9.347,-0.5435,-0.8715,8,46.701,42.520695,-83.5241,822.58,957.8287334,2.7,29.361288,279.2,14 / 23,353526,2018-07-23 23:12:43:484
9.0764,0.2538,2.5426,7,38.104,42.520695,-83.5241,822.58,957.8287334,2.7,29.361288,279.2,14 / 23,354027,2018-07-23 23:12:43:985
9.4128,0.0467,0.0778,3,37.326,42.520695,-83.5241,822.58,957.8287334,2.7,29.361288,279.2,14 / 23,354528,2018-07-23 23:12:44:486
8.9268,-1.7286,2.624,1,36.042,42.520695,-83.5241,822.58,957.8287334,2.7,29.361288,279.2,13 / 23,355027,2018-07-23 23:12:44:985
11.303,-1.8675,-1.1396,6,36.245,42.520695,-83.5241,822.58,957.8287334,2.7,29.361288,279.2,13 / 23,355527,2018-07-23 23:12:45:485
9.1183,-0.662,0.9266,3,34.763,42.520676,-83.52423,861.29,957.8287334,1.69,44.041935,270.3,13 / 24,356027,2018-07-23 23:12:45:985
8.3402,-2.0877,5.4324,0,36.416,42.520676,-83.52423,861.29,957.8287334,1.69,44.041935,270.3,13 / 24,356526,2018-07-23 23:12:46:484
7.8913,-1.415,0.8882,2,36.193,42.520676,-83.52423,861.29,957.8287334,1.69,44.041935,270.3,13 / 24,357027,2018-07-23 23:12:46:985
8.3773,0.0204,1.4868,5,34.953,42.520676,-83.52423,861.29,957.8287334,1.69,44.041935,270.3,13 / 24,357527,2018-07-23 23:12:47:485
12.7814,0.1724,0.4118,2,34.168,42.520676,-83.52423,861.29,957.8287334,1.69,44.041935,270.3,13 / 24,358027,2018-07-23 23:12:47:985
8.6778,0.5878,-0.6608,5,38.061,42.520676,-83.52423,861.29,957.8287334,1.69,44.041935,270.3,13 / 24,358528,2018-07-23 23:12:48:486
9.2404,2.314,1.3731,5,38.299,42.520676,-83.52423,861.29,957.8287334,1.69,44.041935,270.3,13 / 24,359027,2018-07-23 23:12:48:985
9.8246,-0.8811,-1.8603,5,35.313,42.520676,-83.52423,861.29,957.8287334,1.69,44.041935,270.3,13 / 24,359527,2018-07-23 23:12:49:485
9.1351,0.0168,0.2682,5,36.423,42.520676,-83.52423,861.29,957.8287334,1.69,44.041935,270.3,13 / 24,360027,2018-07-23 23:12:49:985
7.8434,1.2785,2.569,8,34.862,42.520676,-83.52423,861.29,957.8287334,1.69,44.041935,270.3,13 / 24,360527,2018-07-23 23:12:50:485
9.5493,0.6704,0.1748,8,33.619,42.520676,-83.52423,861.29,957.8287334,1.69,44.041935,270.3,13 / 24,361028,2018-07-23 23:12:50:986
9.2823,-2.6145,2.9281,8,37.878,42.520676,-83.52423,861.29,957.8287334,1.69,44.041935,270.3,13 / 24,361527,2018-07-23 23:12:51:485
10.398,1.6819,5.4456,11,35.104,42.520676,-83.52423,861.29,957.8287334,1.69,44.041935,270.3,13 / 24,362029,2018-07-23 23:12:51:987
9.5996,-1.5215,-4.47,3,32.841,42.520676,-83.52423,861.29,957.8287334,1.69,44.041935,270.3,13 / 24,362528,2018-07-23 23:12:52:486
9.4451,-1.7083,0.0419,5,34.548,42.520676,-83.52423,861.29,957.8287334,1.69,44.041935,270.3,13 / 24,363027,2018-07-23 23:12:52:985
11.0253,-3.1891,-0.6225,8,34.558,42.520676,-83.52423,861.29,957.8287334,1.69,44.041935,270.3,13 / 24,363528,2018-07-23 23:12:53:486
8.5988,-0.8942,1.828,8,33.659,42.520676,-83.52423,861.29,957.8287334,1.69,44.041935,270.3,16 / 23,364026,2018-07-23 23:12:53:984
9.1794,-1.9776,3.2825,1,34.314,42.520676,-83.52423,861.29,957.8287334,1.69,44.041935,270.3,16 / 23,364528,2018-07-23 23:12:54:486
9.8138,0.0359,0.9481,11,38.17,42.52077,-83.524284,806.45,957.8287334,2.45,34.254837,259,16 / 23,365027,2018-07-23 23:12:54:985
9.4535,2.0279,1.8364,9,36.444,42.52077,-83.524284,806.45,957.8287334,2.45,34.254837,259,16 / 23,365527,2018-07-23 23:12:55:485
10.1778,-1.0666,5.3439,8,37.401,42.52077,-83.524284,806.45,957.8287334,2.45,34.254837,259,16 / 23,366028,2018-07-23 23:12:55:986
8.8334,-0.6955,-0.5267,9,41.496,42.52077,-83.524284,806.45,957.8287334,2.45,34.254837,259,16 / 23,366527,2018-07-23 23:12:56:485
9.5181,1.4976,2.49,11,34.948,42.52077,-83.524284,806.45,957.8287334,2.45,34.254837,259,16 / 23,367028,2018-07-23 23:12:56:986
9.8007,0.1592,-0.4477,9,37.204,42.52077,-83.524284,806.45,957.8287334,2.45,34.254837,259,16 / 23,367527,2018-07-23 23:12:57:485
8.3246,0.2274,0.2059,9,38.793,42.52077,-83.524284,806.45,957.8287334,2.45,34.254837,259,16 / 23,368026,2018-07-23 23:12:57:984
6.3638,-0.7673,3.4955,6,35.054,42.52077,-83.524284,806.45,957.8287334,2.45,34.254837,259,16 / 23,368529,2018-07-23 23:12:58:487
9.9204,-0.8248,0.583,8,37.793,42.52077,-83.524284,806.45,957.8287334,2.45,34.254837,259,16 / 23,369026,2018-07-23 23:12:58:984
9.5732,-3.2657,1.9237,8,45.411,42.52077,-83.524284,806.45,957.8287334,2.45,34.254837,259,16 / 23,369527,2018-07-23 23:12:59:485
7.914,-1.585,5.6024,8,33.102,42.52077,-83.524284,806.45,957.8287334,2.45,34.254837,259,16 / 23,370028,2018-07-23 23:12:59:986
9.6391,-0.3843,1.1612,2,34.978,42.52077,-83.524284,806.45,957.8287334,2.45,34.254837,259,16 / 23,370527,2018-07-23 23:13:00:485
9.5972,-0.9361,1.962,1,49.42,42.52077,-83.524284,806.45,957.8287334,2.45,34.254837,259,16 / 23,371028,2018-07-23 23:13:00:986
8.2253,-3.4848,1.6604,2,35.023,42.52077,-83.524284,806.45,957.8287334,2.45,34.254837,259,16 / 23,371527,2018-07-23 23:13:01:485
10.149,-1.3767,-0.2095,2,33.31,42.52077,-83.524284,806.45,957.8287334,2.45,34.254837,259,16 / 23,372028,2018-07-23 23:13:01:986
9.7444,-2.5929,-1.5119,2,34.041,42.52077,-83.524284,806.45,957.8287334,2.45,34.254837,259,16 / 23,372529,2018-07-23 23:13:02:487
7.2353,-0.8152,1.5036,1,36.21,42.52077,-83.524284,806.45,957.8287334,2.45,34.254837,259,16 / 23,373027,2018-07-23 23:13:02:985
10.1251,-0.3771,-1.3623,1,36.389,42.52077,-83.524284,806.45,957.8287334,2.45,34.254837,259,16 / 23,373528,2018-07-23 23:13:03:486
10.2831,-1.2953,2.0123,2,46.371,42.52077,-83.524284,806.45,957.8287334,2.45,34.254837,259,16 / 23,374028,2018-07-23 23:13:03:986
7.768,-0.8248,3.1915,5,35.093,42.52077,-83.524284,806.45,957.8287334,2.45,34.254837,259,16 / 23,374527,2018-07-23 23:13:04:485
10.4675,-0.3005,-0.9697,5,35.447,42.52077,-83.524284,806.45,957.8287334,2.45,34.254837,259,16 / 23,375027,2018-07-23 23:13:04:985
9.7803,-2.6935,2.6612,4,35.203,42.52077,-83.524284,806.45,957.8287334,2.45,34.254837,259,16 / 23,375528,2018-07-23 23:13:05:486
7.9954,-2.2924,1.9465,5,35.963,42.52077,-83.524284,806.45,957.8287334,2.45,34.254837,259,16 / 23,376028,2018-07-23 23:13:05:986
9.347,-0.431,-0.0239,5,39.046,42.52077,-83.524284,806.45,957.8287334,2.45,34.254837,259,16 / 23,376528,2018-07-23 23:13:06:486
9.335,-3.2286,-0.2801,4,33.931,42.52077,-83.524284,806.45,957.8287334,2.45,34.254837,259,16 / 23,377026,2018-07-23 23:13:06:984
12.6354,1.5419,4.3383,5,36.611,42.52077,-83.524284,806.45,957.8287334,2.45,34.254837,259,16 / 23,377528,2018-07-23 23:13:07:486
10.2017,-1.6568,0.7111,5,35.804,42.52077,-83.524284,806.45,957.8287334,2.45,34.254837,259,16 / 23,378027,2018-07-23 23:13:07:985
9.3553,-2.7473,2.8563,2,36.352,42.52077,-83.524284,806.45,957.8287334,2.45,34.254837,259,16 / 23,378528,2018-07-23 23:13:08:486
8.6658,-2.8695,2.308,3,34.693,42.52077,-83.524284,806.45,957.8287334,2.45,34.254837,259,16 / 23,379027,2018-07-23 23:13:08:985
9.8761,-0.9601,0.2274,0,34.644,42.52077,-83.524284,806.45,957.8287334,2.45,34.254837,259,16 / 23,379527,2018-07-23 23:13:09:485
9.4774,-3.1556,1.4413,0,36.623,42.520714,-83.52442,829.03,957.8287334,7.88,44.041935,244.2,16 / 23,380027,2018-07-23 23:13:09:985
10.5321,0.4369,2.2218,0,33.77,42.520714,-83.52442,829.03,957.8287334,7.88,44.041935,244.2,16 / 23,380527,2018-07-23 23:13:10:485
9.2775,1.1109,0.9912,0,32.5,42.520714,-83.52442,829.03,957.8287334,7.88,44.041935,244.2,16 / 23,381027,2018-07-23 23:13:10:985
8.4324,-0.5052,-1.549,0,38.508,42.520714,-83.52442,829.03,957.8287334,7.88,44.041935,244.2,16 / 23,381528,2018-07-23 23:13:11:486
11.1821,-1.397,-0.9086,0,35.474,42.520714,-83.52442,829.03,957.8287334,7.88,44.041935,244.2,16 / 23,382027,2018-07-23 23:13:11:985
8.5365,-0.5986,0.6764,0,34.891,42.520714,-83.52442,829.03,957.8287334,7.88,44.041935,244.2,16 / 23,382528,2018-07-23 23:13:12:486
10.2304,-0.4597,-0.6309,0,40.859,42.520714,-83.52442,829.03,957.8287334,7.88,44.041935,244.2,16 / 23,383026,2018-07-23 23:13:12:984
13.9271,2.6025,4.1372,0,33.97,42.520714,-83.52442,829.03,957.8287334,7.88,44.041935,244.2,16 / 23,383527,2018-07-23 23:13:13:485
8.4851,-0.5279,0.231,0,35.079,42.520714,-83.52442,829.03,957.8287334,7.88,44.041935,244.2,16 / 23,384028,2018-07-23 23:13:13:986
6.4021,-1.9489,3.5817,0,33.708,42.520714,-83.52442,829.03,957.8287334,7.88,44.041935,244.2,16 / 23,384527,2018-07-23 23:13:14:485
10.3286,-2.3882,-2.0734,0,34.058,42.520714,-83.52442,829.03,957.8287334,7.88,44.041935,244.2,16 / 23,385028,2018-07-23 23:13:14:986
9.2883,0.2095,-1.0259,0,35.551,42.520714,-83.52442,829.03,957.8287334,7.88,44.041935,244.2,16 / 23,385528,2018-07-23 23:13:15:486
6.6008,-2.7043,2.4816,0,36.234,42.520714,-83.52442,829.03,957.8287334,7.88,44.041935,244.2,16 / 23,386027,2018-07-23 23:13:15:985
10.9212,-1.069,-0.5399,0,35.366,42.520714,-83.52442,829.03,957.8287334,7.88,44.041935,244.2,16 / 23,386528,2018-07-23 23:13:16:486
8.7496,-1.1349,-1.251,0,33.521,42.520714,-83.52442,829.03,957.8287334,7.88,44.041935,244.2,16 / 23,387027,2018-07-23 23:13:16:985
7.0198,-2.7665,4.7489,0,36.797,42.520714,-83.52442,829.03,957.8287334,7.88,44.041935,244.2,16 / 23,387529,2018-07-23 23:13:17:487
10.5489,-1.4976,-1.3707,0,32.448,42.520714,-83.52442,829.03,957.8287334,7.88,44.041935,244.2,23-Sep,388027,2018-07-23 23:13:17:985
8.7676,0.395,0.4477,0,34.402,42.520714,-83.52442,829.03,957.8287334,7.88,44.041935,244.2,23-Sep,388527,2018-07-23 23:13:18:485
7.4819,-3.3591,1.245,0,34.643,42.520714,-83.52442,829.03,957.8287334,7.88,44.041935,244.2,23-Sep,389026,2018-07-23 23:13:18:984
11.0002,-1.6891,0.9589,0,34.477,42.520714,-83.52442,829.03,957.8287334,7.88,44.041935,244.2,23-Sep,389527,2018-07-23 23:13:19:485
8.825,-1.7095,2.1931,0,34.091,42.520714,-83.52442,829.03,957.8287334,7.88,44.041935,244.2,23-Sep,390026,2018-07-23 23:13:19:984
7.7656,-3.8738,2.6707,0,34.056,42.520714,-83.52442,829.03,957.8287334,7.88,44.041935,244.2,23-Sep,390527,2018-07-23 23:13:20:485
9.7121,-3.9385,0.6345,0,37.532,42.520714,-83.52442,829.03,957.8287334,7.88,44.041935,244.2,23-Sep,391027,2018-07-23 23:13:20:985
8.5042,-1.251,0.8655,0,34.659,42.520714,-83.52442,829.03,957.8287334,7.88,44.041935,244.2,23-Sep,391528,2018-07-23 23:13:21:486
7.61,-2.812,4.9871,0,34.392,42.520714,-83.52442,829.03,957.8287334,7.88,44.041935,244.2,23-Sep,392027,2018-07-23 23:13:21:985
10.0987,-1.9297,-0.3352,0,35.331,42.520714,-83.52442,829.03,957.8287334,7.88,44.041935,244.2,23-Sep,392527,2018-07-23 23:13:22:485
8.6072,-0.5878,-0.5938,0,35.083,42.520714,-83.52442,829.03,957.8287334,7.88,44.041935,244.2,23-Sep,393028,2018-07-23 23:13:22:986
5.8562,-3.1603,2.9987,0,33.625,42.520714,-83.52442,829.03,957.8287334,7.88,44.041935,244.2,23-Sep,393527,2018-07-23 23:13:23:485
10.8685,-2.6851,-1.9046,1,34.537,42.520714,-83.52442,829.03,957.8287334,7.88,44.041935,244.2,23-Sep,394027,2018-07-23 23:13:23:985
8.2708,-1.7957,-0.7398,0,35.26,42.520714,-83.52442,829.03,957.8287334,7.88,44.041935,244.2,23-Sep,394529,2018-07-23 23:13:24:487
7.6626,-2.8084,-0.2131,0,44.961,42.520714,-83.52442,829.03,957.8287334,7.88,44.041935,244.2,23-Sep,395027,2018-07-23 23:13:24:985
11.9973,-3.3986,0.9325,1,35.578,42.520714,-83.52442,829.03,957.8287334,7.88,44.041935,244.2,23-Sep,395529,2018-07-23 23:13:25:487
8.3019,-1.5167,0.3974,0,35.201,42.520714,-83.52442,829.03,957.8287334,7.88,44.041935,244.2,17 / 22,396026,2018-07-23 23:13:25:984
4.6244,-1.2605,3.1125,0,37.555,42.520714,-83.52442,829.03,957.8287334,7.88,44.041935,244.2,17 / 22,396528,2018-07-23 23:13:26:486
11.1498,-2.7713,-2.4541,1,32.223,42.520645,-83.524574,832.26,957.8287334,1.91,29.361288,271.9,17 / 22,397027,2018-07-23 23:13:26:985
9.0633,0.5519,-0.3089,1,35.699,42.520645,-83.524574,832.26,957.8287334,1.91,29.361288,271.9,17 / 22,397526,2018-07-23 23:13:27:484
5.3618,-2.5019,4.2737,0,49.316,42.520645,-83.524574,832.26,957.8287334,1.91,29.361288,271.9,17 / 22,398027,2018-07-23 23:13:27:985
10.325,-1.9609,-0.5614,1,38.321,42.520645,-83.524574,832.26,957.8287334,1.91,29.361288,271.9,17 / 22,398527,2018-07-23 23:13:28:485
7.9404,-2.4457,-1.0977,1,33.981,42.520645,-83.524574,832.26,957.8287334,1.91,29.361288,271.9,17 / 22,399027,2018-07-23 23:13:28:985
7.2856,-3.3004,2.806,0,39.152,42.520645,-83.524574,832.26,957.8287334,1.91,29.361288,271.9,17 / 22,399527,2018-07-23 23:13:29:485
11.2946,-3.0358,-1.0654,1,31.572,42.520645,-83.524574,832.26,957.8287334,1.91,29.361288,271.9,17 / 22,400027,2018-07-23 23:13:29:985
8.2576,-1.2833,1.4569,0,45.175,42.520645,-83.524574,832.26,957.8287334,1.91,29.361288,271.9,17 / 22,400527,2018-07-23 23:13:30:485
7.616,-3.8331,1.397,0,37.651,42.520645,-83.524574,832.26,957.8287334,1.91,29.361288,271.9,17 / 22,401026,2018-07-23 23:13:30:984
11.1486,-2.1356,0.4657,5,32.364,42.520645,-83.524574,832.26,957.8287334,1.91,29.361288,271.9,17 / 22,401526,2018-07-23 23:13:31:484
8.6455,-1.233,-0.0658,1,48.964,42.520645,-83.524574,832.26,957.8287334,1.91,29.361288,271.9,17 / 22,402028,2018-07-23 23:13:31:986
6.0741,-3.286,5.1679,0,47.887,42.520645,-83.524574,832.26,957.8287334,1.91,29.361288,271.9,17 / 22,402527,2018-07-23 23:13:32:485
11.1666,-2.551,-0.5171,3,42.44,42.520645,-83.524574,832.26,957.8287334,1.91,29.361288,271.9,17 / 22,403026,2018-07-23 23:13:32:984
8.7496,-1.3587,-0.1832,1,36.276,42.520645,-83.524574,832.26,957.8287334,1.91,29.361288,271.9,17 / 22,403527,2018-07-23 23:13:33:485
6.0849,-2.9018,1.6819,0,39.871,42.520645,-83.524574,832.26,957.8287334,1.91,29.361288,271.9,17 / 22,404027,2018-07-23 23:13:33:985
11.2144,-4.203,1.9453,1,33.154,42.520645,-83.524574,832.26,957.8287334,1.91,29.361288,271.9,17 / 22,404527,2018-07-23 23:13:34:485
8.3809,-2.6109,0.0766,0,33.758,42.520645,-83.524574,832.26,957.8287334,1.91,29.361288,271.9,17 / 23,405027,2018-07-23 23:13:34:985
6.6679,-3.6368,4.2677,0,37.069,42.520645,-83.524574,832.26,957.8287334,1.91,29.361288,271.9,17 / 23,405528,2018-07-23 23:13:35:486
12.2308,-3.6021,1.5479,1,37.726,42.52072,-83.52465,845.16,957.8287334,2.66,24.467743,282.3,17 / 23,406027,2018-07-23 23:13:35:985
8.3546,-1.9297,1.0008,0,36.811,42.52072,-83.52465,845.16,957.8287334,2.66,24.467743,282.3,17 / 23,406527,2018-07-23 23:13:36:485
7.8374,-1.1432,-0.2227,0,39.013,42.52072,-83.52465,845.16,957.8287334,2.66,24.467743,282.3,17 / 23,407028,2018-07-23 23:13:36:986
11.412,-4.4831,0.5974,1,33.537,42.52072,-83.52465,845.16,957.8287334,2.66,24.467743,282.3,17 / 23,407528,2018-07-23 23:13:37:486
7.8877,-3.6176,2.053,1,38.208,42.52072,-83.52465,845.16,957.8287334,2.66,24.467743,282.3,17 / 23,408028,2018-07-23 23:13:37:986
6.6116,-3.0179,4.0845,0,32.513,42.52072,-83.52465,845.16,957.8287334,2.66,24.467743,282.3,17 / 23,408527,2018-07-23 23:13:38:485
11.4239,-3.8235,1.9585,0,33.131,42.52072,-83.52465,845.16,957.8287334,2.66,24.467743,282.3,17 / 23,409027,2018-07-23 23:13:38:985
8.5593,-0.8068,1.6891,0,50.77,42.52072,-83.52465,845.16,957.8287334,2.66,24.467743,282.3,17 / 23,409527,2018-07-23 23:13:39:485
6.3219,-2.6252,3.1783,0,44.83,42.52072,-83.52465,845.16,957.8287334,2.66,24.467743,282.3,17 / 23,410027,2018-07-23 23:13:39:985
10.5369,-3.9349,-0.4082,0,38.953,42.52072,-83.52465,845.16,957.8287334,2.66,24.467743,282.3,17 / 23,410527,2018-07-23 23:13:40:485
8.3007,-2.4433,1.828,1,32.99,42.52072,-83.52465,845.16,957.8287334,2.66,24.467743,282.3,17 / 23,411027,2018-07-23 23:13:40:985
7.9236,-4.0833,2.1284,1,33.27,42.52072,-83.52465,845.16,957.8287334,2.66,24.467743,282.3,17 / 23,411527,2018-07-23 23:13:41:485
11.3294,-3.7218,0.5124,2,33.491,42.52072,-83.52465,845.16,957.8287334,2.66,24.467743,282.3,17 / 23,412028,2018-07-23 23:13:41:986
8.4013,-2.3643,1.136,1,34.894,42.52072,-83.52465,845.16,957.8287334,2.66,24.467743,282.3,17 / 23,412527,2018-07-23 23:13:42:485
9.8402,-2.1344,-0.2274,1,34.575,42.52072,-83.52465,845.16,957.8287334,2.66,24.467743,282.3,17 / 22,413026,2018-07-23 23:13:42:984
12.6127,-1.5167,2.3547,2,33.805,42.52072,-83.52465,845.16,957.8287334,2.66,24.467743,282.3,17 / 22,413528,2018-07-23 23:13:43:486
8.4886,-3.0203,0.3316,1,37.123,42.52072,-83.52465,845.16,957.8287334,2.66,24.467743,282.3,17 / 22,414026,2018-07-23 23:13:43:984
8.0697,-2.2601,-0.7542,1,49.69,42.52072,-83.52465,845.16,957.8287334,2.66,24.467743,282.3,17 / 22,414528,2018-07-23 23:13:44:486
12.6593,-0.3615,6.5984,1,38.143,42.52072,-83.52465,845.16,957.8287334,2.66,24.467743,282.3,17 / 22,415027,2018-07-23 23:13:44:985
8.4503,-3.1065,-0.2274,1,44.431,42.52072,-83.52465,845.16,957.8287334,2.66,24.467743,282.3,17 / 22,415527,2018-07-23 23:13:45:485
9.8881,-2.5043,-0.2753,1,49.099,42.52072,-83.52465,845.16,957.8287334,2.66,24.467743,282.3,17 / 22,416028,2018-07-23 23:13:45:986
11.0852,-2.9449,-0.7853,2,35.478,42.52072,-83.52465,845.16,957.8287334,2.66,24.467743,282.3,17 / 22,416527,2018-07-23 23:13:46:485
8.0409,-1.7933,0.3508,1,43.27,42.52072,-83.52465,845.16,957.8287334,2.66,24.467743,282.3,17 / 22,417029,2018-07-23 23:13:46:987
4.0797,-2.6025,5.3319,0,37.41,42.52072,-83.52465,845.16,957.8287334,2.66,24.467743,282.3,17 / 22,417526,2018-07-23 23:13:47:484
11.0433,-3.2681,-1.6592,0,39.514,42.52072,-83.52465,845.16,957.8287334,2.66,24.467743,282.3,17 / 22,418027,2018-07-23 23:13:47:985
8.5784,-0.4752,0.4166,0,51.221,42.52072,-83.52465,845.16,957.8287334,2.66,24.467743,282.3,17 / 22,418528,2018-07-23 23:13:48:486
6.2932,-2.5989,3.1951,0,39.176,42.52072,-83.52465,845.16,957.8287334,2.66,24.467743,282.3,17 / 22,419027,2018-07-23 23:13:48:985
10.75,-1.8519,0.261,0,34.584,42.52072,-83.52465,845.16,957.8287334,2.66,24.467743,282.3,17 / 22,419528,2018-07-23 23:13:49:486
9.0597,0.0048,-0.9373,0,46.332,42.52072,-83.52465,845.16,957.8287334,2.66,24.467743,282.3,17 / 22,420028,2018-07-23 23:13:49:986
13.7918,-1.3982,-1.2701,0,41.028,42.52072,-83.52465,845.16,957.8287334,2.66,24.467743,282.3,17 / 22,420527,2018-07-23 23:13:50:485
8.6694,-2.5989,-1.8663,0,38.089,42.52072,-83.52465,845.16,957.8287334,2.66,24.467743,282.3,17 / 22,421027,2018-07-23 23:13:50:985
6.1579,0.3579,2.5857,0,37.456,42.52072,-83.52465,845.16,957.8287334,2.66,24.467743,282.3,17 / 22,421527,2018-07-23 23:13:51:485
9.973,-3.0047,1.2881,0,43.049,42.520733,-83.52485,851.61,957.8287334,2.23,29.361288,261.5,17 / 22,422026,2018-07-23 23:13:51:984
9.6415,-4.0199,0.146,0,38.21,42.520733,-83.52485,851.61,957.8287334,2.23,29.361288,261.5,17 / 22,422528,2018-07-23 23:13:52:486
8.6742,-0.7709,1.0259,0,34.485,42.520733,-83.52485,851.61,957.8287334,2.23,29.361288,261.5,17 / 22,423027,2018-07-23 23:13:52:985
11.0002,-2.138,0.0503,0,36.02,42.520733,-83.52485,851.61,957.8287334,2.23,29.361288,261.5,17 / 22,423529,2018-07-23 23:13:53:487
8.9495,-3.9049,2.059,0,34.849,42.520733,-83.52485,851.61,957.8287334,2.23,29.361288,261.5,17 / 22,424027,2018-07-23 23:13:53:985
13.8373,2.3798,3.304,0,35.718,42.520733,-83.52485,851.61,957.8287334,2.23,29.361288,261.5,17 / 22,424527,2018-07-23 23:13:54:485
9.4391,-1.3276,0.7362,0,43.719,42.520733,-83.52485,851.61,957.8287334,2.23,29.361288,261.5,17 / 22,425028,2018-07-23 23:13:54:986
10.1335,-2.8072,-1.3898,0,37.492,42.520733,-83.52485,851.61,957.8287334,2.23,29.361288,261.5,17 / 22,425527,2018-07-23 23:13:55:485
11.1558,-3.2549,0.7949,0,34.865,42.520733,-83.52485,851.61,957.8287334,2.23,29.361288,261.5,17 / 22,426028,2018-07-23 23:13:55:986
8.3606,-2.0279,0.1748,0,43.269,42.520733,-83.52485,851.61,957.8287334,2.23,29.361288,261.5,17 / 22,426528,2018-07-23 23:13:56:486
9.2644,-3.6272,-2.5678,0,34.449,42.520733,-83.52485,851.61,957.8287334,2.23,29.361288,261.5,17 / 22,427027,2018-07-23 23:13:56:985
11.6933,-3.3794,1.0175,0,33.76,42.520733,-83.52485,851.61,957.8287334,2.23,29.361288,261.5,17 / 22,427526,2018-07-23 23:13:57:484
8.5736,-2.2206,1.0151,0,36.559,42.520733,-83.52485,851.61,957.8287334,2.23,29.361288,261.5,17 / 22,428027,2018-07-23 23:13:57:985
9.9707,-5.0099,-0.407,0,38.15,42.520733,-83.52485,851.61,957.8287334,2.23,29.361288,261.5,17 / 22,428529,2018-07-23 23:13:58:487
11.7819,0.4453,3.7014,0,36.568,42.520733,-83.52485,851.61,957.8287334,2.23,29.361288,261.5,17 / 23,429026,2018-07-23 23:13:58:984
8.4707,-2.7438,1.9561,0,39.667,42.520733,-83.52485,851.61,957.8287334,2.23,29.361288,261.5,17 / 23,429527,2018-07-23 23:13:59:485
9.7863,-0.9792,0.5614,0,43.324,42.520733,-83.52485,851.61,957.8287334,2.23,29.361288,261.5,17 / 23,430027,2018-07-23 23:13:59:985
12.0656,-0.7015,4.6926,0,34.288,42.520733,-83.52485,851.61,957.8287334,2.23,29.361288,261.5,17 / 23,430527,2018-07-23 23:14:00:485
8.4779,0.5291,0.8775,0,33.895,42.520733,-83.52485,851.61,957.8287334,2.23,29.361288,261.5,17 / 23,431027,2018-07-23 23:14:00:985
9.8569,-1.5778,0.8954,0,45.02,42.520733,-83.52485,851.61,957.8287334,2.23,29.361288,261.5,17 / 23,431526,2018-07-23 23:14:01:484
12.1625,0.2322,3.8822,0,38.56,42.520733,-83.52485,851.61,957.8287334,2.23,29.361288,261.5,17 / 23,432027,2018-07-23 23:14:01:985
8.6263,-1.7286,0.0814,0,33.384,42.520733,-83.52485,851.61,957.8287334,2.23,29.361288,261.5,17 / 23,432527,2018-07-23 23:14:02:485
9.505,-2.1272,0.1592,0,35.898,42.520733,-83.52485,851.61,957.8287334,2.23,29.361288,261.5,17 / 23,433027,2018-07-23 23:14:02:985
10.7931,-2.3008,-1.2031,0,34.543,42.520733,-83.52485,851.61,957.8287334,2.23,29.361288,261.5,17 / 23,433527,2018-07-23 23:14:03:485
8.6562,-1.3324,0.9421,0,33.912,42.520733,-83.52485,851.61,957.8287334,2.23,29.361288,261.5,17 / 23,434027,2018-07-23 23:14:03:985
7.1084,-0.68,2.4062,0,38.778,42.520733,-83.52485,851.61,957.8287334,2.23,29.361288,261.5,17 / 23,434527,2018-07-23 23:14:04:485
11.0014,-1.7514,-0.9708,0,36.646,42.520733,-83.52485,851.61,957.8287334,2.23,29.361288,261.5,17 / 23,435028,2018-07-23 23:14:04:986
8.6167,1.5598,1.4688,0,34.202,42.520733,-83.52485,851.61,957.8287334,2.23,29.361288,261.5,17 / 23,435527,2018-07-23 23:14:05:485
6.7349,-0.7207,2.332,0,35.933,42.520733,-83.52485,851.61,957.8287334,2.23,29.361288,261.5,17 / 23,436027,2018-07-23 23:14:05:985
10.3238,-0.4693,1.555,0,36.496,42.520733,-83.52485,851.61,957.8287334,2.23,29.361288,261.5,17 / 23,436529,2018-07-23 23:14:06:487
8.4898,1.7968,1.7945,0,35.008,42.520733,-83.52485,851.61,957.8287334,2.23,29.361288,261.5,18 / 22,437026,2018-07-23 23:14:06:984
9.8138,-0.6369,3.8595,0,34.827,42.520733,-83.52485,851.61,957.8287334,2.23,29.361288,261.5,18 / 22,437526,2018-07-23 23:14:07:484
9.985,0.1544,-1.1744,0,37.794,42.520733,-83.52485,851.61,957.8287334,2.23,29.361288,261.5,18 / 22,438027,2018-07-23 23:14:07:985
10.4806,-3.8223,-1.798,0,33.971,42.520733,-83.52485,851.61,957.8287334,2.23,29.361288,261.5,18 / 22,438527,2018-07-23 23:14:08:485
12.7683,0.9936,0.7123,0,44.281,42.520733,-83.52485,851.61,957.8287334,2.23,29.361288,261.5,18 / 22,439026,2018-07-23 23:14:08:984
8.418,0.073,0.6093,0,34.281,42.520733,-83.52485,851.61,957.8287334,2.23,29.361288,261.5,18 / 22,439527,2018-07-23 23:14:09:485
8.5772,2.156,1.8854,0,33.091,42.520733,-83.52485,851.61,957.8287334,2.23,29.361288,261.5,18 / 22,440028,2018-07-23 23:14:09:986
10.7344,0.4178,0.6057,0,38.925,42.520733,-83.52485,851.61,957.8287334,2.23,29.361288,261.5,18 / 22,440527,2018-07-23 23:14:10:485
8.8107,-0.4058,1.9836,0,38.852,42.520733,-83.52485,851.61,957.8287334,2.23,29.361288,261.5,18 / 22,441027,2018-07-23 23:14:10:985
7.2832,1.3072,4.6112,0,34.511,42.520733,-83.52485,851.61,957.8287334,2.23,29.361288,261.5,18 / 22,441528,2018-07-23 23:14:11:486
9.9431,0.7877,1.1779,0,36.391,42.520733,-83.52485,851.61,957.8287334,2.23,29.361288,261.5,18 / 22,442026,2018-07-23 23:14:11:984
9.232,-1.5694,-0.3196,0,34.944,42.520733,-83.52485,851.61,957.8287334,2.23,29.361288,261.5,18 / 22,442529,2018-07-23 23:14:12:487
11.9315,-0.0431,4.5047,0,32.627,42.520733,-83.52485,851.61,957.8287334,2.23,29.361288,261.5,18 / 22,443028,2018-07-23 23:14:12:986
9.0884,-0.6452,1.0247,0,37.744,42.520733,-83.52485,851.61,957.8287334,2.23,29.361288,261.5,18 / 22,443527,2018-07-23 23:14:13:485
9.08,-0.1532,0.4645,0,33.342,42.520733,-83.52485,851.61,957.8287334,2.23,29.361288,261.5,18 / 22,444028,2018-07-23 23:14:13:986
10.2723,-0.413,-0.1664,0,30.841,42.520733,-83.52485,851.61,957.8287334,2.23,29.361288,261.5,18 / 22,444527,2018-07-23 23:14:14:485
8.8789,1.233,1.0068,0,33.498,42.520733,-83.52485,851.61,957.8287334,2.23,29.361288,261.5,18 / 22,445027,2018-07-23 23:14:14:985
6.4679,-0.4226,6.1699,0,32.485,42.520733,-83.52485,851.61,957.8287334,2.23,29.361288,261.5,18 / 22,445528,2018-07-23 23:14:15:486
10.0269,1.4174,0.3304,0,32.369,42.520733,-83.52485,851.61,957.8287334,2.23,29.361288,261.5,15 / 22,446027,2018-07-23 23:14:15:985
8.1307,2.0411,1.7526,0,34.176,42.520733,-83.52485,851.61,957.8287334,2.23,29.361288,261.5,15 / 22,446527,2018-07-23 23:14:16:485
11.139,3.462,5.3331,0,31.816,42.520813,-83.525,845.16,957.8287334,1.44,53.829033,184.5,15 / 22,447026,2018-07-23 23:14:16:984
8.7879,1.4772,0.4381,0,41.683,42.520813,-83.525,845.16,957.8287334,1.44,53.829033,184.5,15 / 22,447527,2018-07-23 23:14:17:485
9.3996,2.3343,2.1045,0,34.451,42.520813,-83.525,845.16,957.8287334,1.44,53.829033,184.5,15 / 22,448028,2018-07-23 23:14:17:986
10.173,0.3926,-0.8535,0,34.691,42.520813,-83.525,845.16,957.8287334,1.44,53.829033,184.5,15 / 22,448526,2018-07-23 23:14:18:484
8.5281,0.741,0.5818,0,45.393,42.520813,-83.525,845.16,957.8287334,1.44,53.829033,184.5,15 / 22,449028,2018-07-23 23:14:18:986
6.2584,1.9369,3.3399,0,34.484,42.520813,-83.525,845.16,957.8287334,1.44,53.829033,184.5,15 / 22,449528,2018-07-23 23:14:19:486
10.2508,1.5909,1.5802,0,32.499,42.520813,-83.525,845.16,957.8287334,1.44,53.829033,184.5,15 / 22,450027,2018-07-23 23:14:19:985
9.6391,-0.6536,1.3443,0,33.251,42.520813,-83.525,845.16,957.8287334,1.44,53.829033,184.5,15 / 22,450528,2018-07-23 23:14:20:486
10.726,1.7992,5.7006,0,33.276,42.520813,-83.525,845.16,957.8287334,1.44,53.829033,184.5,15 / 22,451027,2018-07-23 23:14:20:985
8.576,0.0132,1.5071,0,33.628,42.520813,-83.525,845.16,957.8287334,1.44,53.829033,184.5,15 / 22,451527,2018-07-23 23:14:21:485
10.6243,-1.3168,-0.7242,0,38.267,42.520813,-83.525,845.16,957.8287334,1.44,53.829033,184.5,15 / 22,452028,2018-07-23 23:14:21:986
10.9487,-1.7035,-0.8571,0,33.402,42.520813,-83.525,845.16,957.8287334,1.44,53.829033,184.5,15 / 22,452527,2018-07-23 23:14:22:485
8.91,-1.1576,-0.6656,0,35.065,42.520813,-83.525,845.16,957.8287334,1.44,53.829033,184.5,15 / 22,453027,2018-07-23 23:14:22:985
6.5769,-3.7278,5.9185,0,42.79,42.520813,-83.525,845.16,957.8287334,1.44,53.829033,184.5,15 / 22,453527,2018-07-23 23:14:23:485
10.8457,-0.1772,0.8104,0,44.966,42.520813,-83.525,845.16,957.8287334,1.44,53.829033,184.5,15 / 22,454026,2018-07-23 23:14:23:984
9.5481,2.0686,1.1396,0,35.029,42.520813,-83.525,845.16,957.8287334,1.44,53.829033,184.5,15 / 22,454528,2018-07-23 23:14:24:486
8.1606,-0.9206,7.1084,0,35.105,42.520813,-83.525,845.16,957.8287334,1.44,53.829033,184.5,15 / 22,455027,2018-07-23 23:14:24:985
8.8573,0.1652,-0.0395,0,36.088,42.520813,-83.525,845.16,957.8287334,1.44,53.829033,184.5,15 / 22,455528,2018-07-23 23:14:25:486
8.1906,1.3192,2.4708,0,35.044,42.520813,-83.525,845.16,957.8287334,1.44,53.829033,184.5,15 / 22,456026,2018-07-23 23:14:25:984
12.8353,1.0223,1.3623,0,33.755,42.520813,-83.525,845.16,957.8287334,1.44,53.829033,184.5,15 / 22,456527,2018-07-23 23:14:26:485
8.7604,0.9744,0.176,0,44.462,42.520813,-83.525,845.16,957.8287334,1.44,53.829033,184.5,15 / 22,457028,2018-07-23 23:14:26:986
8.8957,1.1001,2.0171,0,35.047,42.520813,-83.525,845.16,957.8287334,1.44,53.829033,184.5,15 / 22,457527,2018-07-23 23:14:27:485
12.949,1.9285,1.1468,0,36.049,42.520813,-83.525,845.16,957.8287334,1.44,53.829033,184.5,15 / 22,458027,2018-07-23 23:14:27:985
9.0178,-0.3089,0.5674,0,42.062,42.520813,-83.525,845.16,957.8287334,1.44,53.829033,184.5,15 / 22,458528,2018-07-23 23:14:28:486
7.5142,0.7614,2.9604,0,34.412,42.520813,-83.525,845.16,957.8287334,1.44,53.829033,184.5,15 / 22,459027,2018-07-23 23:14:28:985
10.3753,-0.2251,0.504,0,34.793,42.520813,-83.525,845.16,957.8287334,1.44,53.829033,184.5,15 / 22,459528,2018-07-23 23:14:29:486
8.9842,-1.6532,3.4105,0,37.131,42.520813,-83.525,845.16,957.8287334,1.44,53.829033,184.5,15 / 22,460026,2018-07-23 23:14:29:984
12.7994,1.6257,6.2979,0,34.94,42.520813,-83.525,845.16,957.8287334,1.44,53.829033,184.5,15 / 22,460528,2018-07-23 23:14:30:486
9.347,-1.0259,1.257,0,39.418,42.520813,-83.525,845.16,957.8287334,1.44,53.829033,184.5,15 / 22,461028,2018-07-23 23:14:30:986
9.6989,-2.5438,0.1568,0,36.85,42.520813,-83.525,845.16,957.8287334,1.44,53.829033,184.5,15 / 22,461527,2018-07-23 23:14:31:485
11.6945,0.6428,6.9587,0,39.255,42.520813,-83.525,845.16,957.8287334,1.44,53.829033,184.5,13 / 24,462027,2018-07-23 23:14:31:985
8.2732,-1.227,1.0331,0,41.629,42.520813,-83.525,845.16,957.8287334,1.44,53.829033,184.5,13 / 24,462526,2018-07-23 23:14:32:484
9.6283,-2.8024,-0.8344,0,39.318,42.520813,-83.525,845.16,957.8287334,1.44,53.829033,184.5,13 / 24,463027,2018-07-23 23:14:32:985
12.9634,-2.393,0.6177,0,37.258,42.520813,-83.525,845.16,957.8287334,1.44,53.829033,184.5,13 / 24,463528,2018-07-23 23:14:33:486
8.9399,-1.2127,1.4198,0,36.714,42.520832,-83.525314,829.03,957.8287334,1.26,24.467743,264.5,13 / 24,464027,2018-07-23 23:14:33:985
9.578,-2.6612,-0.1808,0,33.67,42.520832,-83.525314,829.03,957.8287334,1.26,24.467743,264.5,13 / 24,464526,2018-07-23 23:14:34:484
11.5556,-0.8942,5.8035,0,36.302,42.520832,-83.525314,829.03,957.8287334,1.26,24.467743,264.5,13 / 24,465027,2018-07-23 23:14:34:985
8.4144,-1.7585,1.1744,0,34.096,42.520832,-83.525314,829.03,957.8287334,1.26,24.467743,264.5,13 / 24,465526,2018-07-23 23:14:35:484
8.5593,-4.4831,1.1636,0,32.767,42.520832,-83.525314,829.03,957.8287334,1.26,24.467743,264.5,13 / 24,466029,2018-07-23 23:14:35:987
11.8956,-3.7972,1.0319,0,34.603,42.520832,-83.525314,829.03,957.8287334,1.26,24.467743,264.5,13 / 24,466527,2018-07-23 23:14:36:485
9.1698,-1.5957,-2.6073,0,36.125,42.520832,-83.525314,829.03,957.8287334,1.26,24.467743,264.5,13 / 24,467026,2018-07-23 23:14:36:984
6.9899,-4.2102,3.219,0,34.946,42.520832,-83.525314,829.03,957.8287334,1.26,24.467743,264.5,13 / 24,467527,2018-07-23 23:14:37:485
10.7512,-2.3403,-1.0918,0,35.77,42.520832,-83.525314,829.03,957.8287334,1.26,24.467743,264.5,13 / 24,468027,2018-07-23 23:14:37:985
9.1842,0.7745,-0.0766,0,42.598,42.520832,-83.525314,829.03,957.8287334,1.26,24.467743,264.5,13 / 24,468527,2018-07-23 23:14:38:485
8.7329,-2.6049,4.3048,0,34.787,42.520832,-83.525314,829.03,957.8287334,1.26,24.467743,264.5,16 / 24,469027,2018-07-23 23:14:38:985
8.5437,-1.9477,-0.674,0,40.429,42.520832,-83.525314,829.03,957.8287334,1.26,24.467743,264.5,16 / 24,469527,2018-07-23 23:14:39:485
10.3489,-1.069,-1.2151,0,36.766,42.520832,-83.525314,829.03,957.8287334,1.26,24.467743,264.5,16 / 24,470026,2018-07-23 23:14:39:984
12.1781,-1.3467,-0.4621,0,34.118,42.520832,-83.525314,829.03,957.8287334,1.26,24.467743,264.5,16 / 24,470527,2018-07-23 23:14:40:485
7.5621,-2.3643,0.3017,0,34.556,42.520832,-83.525314,829.03,957.8287334,1.26,24.467743,264.5,16 / 24,471028,2018-07-23 23:14:40:986
8.1068,-1.063,2.4134,0,35.658,42.520832,-83.525314,829.03,957.8287334,1.26,24.467743,264.5,16 / 24,471527,2018-07-23 23:14:41:485
12.4451,-1.3443,-0.5495,0,34.859,42.520832,-83.525314,829.03,957.8287334,1.26,24.467743,264.5,16 / 24,472028,2018-07-23 23:14:41:986
7.9272,-1.6209,0.5519,0,41.341,42.520832,-83.525314,829.03,957.8287334,1.26,24.467743,264.5,16 / 24,472528,2018-07-23 23:14:42:486
8.5677,1.1025,1.6125,0,35.958,42.520832,-83.525314,829.03,957.8287334,1.26,24.467743,264.5,16 / 24,473027,2018-07-23 23:14:42:985
11.248,0.1867,-0.8523,0,34.5,42.520832,-83.525314,829.03,957.8287334,1.26,24.467743,264.5,16 / 24,473528,2018-07-23 23:14:43:486
8.9974,0.6021,0.8009,0,41.879,42.520832,-83.525314,829.03,957.8287334,1.26,24.467743,264.5,16 / 24,474027,2018-07-23 23:14:43:985
8.0421,0.9278,1.6664,0,35.018,42.520832,-83.525314,829.03,957.8287334,1.26,24.467743,264.5,16 / 24,474526,2018-07-23 23:14:44:484
11.1259,1.0343,1.4928,0,35.59,42.520832,-83.525314,829.03,957.8287334,1.26,24.467743,264.5,16 / 24,475029,2018-07-23 23:14:44:987
8.2875,-0.3316,2.2853,0,42.438,42.520832,-83.525314,829.03,957.8287334,1.26,24.467743,264.5,16 / 24,475527,2018-07-23 23:14:45:485
