timestamp(unix),attitude_roll(radians),attitude_pitch(radians),attitude_yaw(radians),rotation_rate_x(radians/s),rotation_rate_y(radians/s),rotation_rate_z(radians/s),gravity_x(G),gravity_y(G),gravity_z(G),user_acc_x(G),user_acc_y(G),user_acc_z(G),magnetic_field_x(microteslas),magnetic_field_y(microteslas),magnetic_field_z(microteslas),latitude(degree),longitude(degree),altitude(meter),speed(m/s),course(degree),timestamp(unix),User Mark
1532483312,0.052051,0.22417,1.206285,0.163254,-0.579044,-0.066275,0.050725,-0.222297,-0.973658,0.005305,0.007515,0.029658,9.045837,-28.43924,-41.703613,,,,,,,
,,,,,,,,,,,,,,,,42.47384,-83.404935,244.790771,-1,-1,1532483301,
1532483312,0.04032,0.22899,1.205603,0.264406,-0.557897,-0.008064,0.039257,-0.226994,-0.973104,-0.006222,0.004323,-0.001261,8.566772,-28.43042,-41.552856,,,,,,,
,,,,,,,,,,,,,,,,42.47384,-83.404935,244.790771,-1,-1,1532483310,
1532483312,0.032738,0.233507,1.205677,0.180499,-0.256243,0.024011,0.031844,-0.23139,-0.97234,-0.020705,0.007223,-0.023708,8.252441,-28.437592,-41.648499,,,,,,,
1532483312,0.031643,0.234901,1.206332,0.007477,0.053862,0.037622,0.030768,-0.232747,-0.97205,-0.021934,0.004491,-0.033962,8.012695,-28.415924,-41.618225,,,,,,,
,,,,,,,,,,,,,,,,42.473818,-83.404931,244.790771,-1,-1,1532483312,
1532483312,0.034728,0.233685,1.206881,-0.086949,0.200555,0.011245,0.033778,-0.231564,-0.972233,-0.017787,-0.005177,-0.013134,8.153503,-28.51355,-41.402161,,,,,,,
,,,,,,,,,,,,,,,,42.473818,-83.404931,244.790771,-1,-1,1532483312,
1532483312,0.037841,0.231675,1.206916,-0.097219,0.113439,-0.005334,0.036821,-0.229608,-0.972586,-0.011629,-0.004553,-0.008798,8.410217,-28.451935,-41.490784,,,,,,,
1532483312,0.03854,0.230546,1.20679,-0.017027,-0.011831,-0.017418,0.037511,-0.22851,-0.972819,-0.009221,-0.002493,0.006571,8.347351,-28.55365,-41.859253,,,,,,,
1532483312,0.037722,0.231604,1.20601,0.095317,-0.051919,-0.04558,0.036706,-0.229539,-0.972607,-0.000558,-0.006774,0.010983,8.602356,-28.75354,-41.630737,,,,,,,
1532483312,0.037073,0.233908,1.204994,0.1144,-0.030645,-0.041964,0.036055,-0.231781,-0.972099,-0.006148,0.004455,0.013924,8.608032,-28.654388,-41.825378,,,,,,,
1532483312,0.036731,0.235231,1.204238,0.036472,-0.019123,-0.031479,0.035712,-0.233067,-0.971804,0.002908,0.00089,0.009066,8.577759,-28.608185,-41.679688,,,,,,,
1532483312,0.036718,0.235216,1.203786,-0.015976,0.001989,-0.017331,0.035699,-0.233053,-0.971808,0.000236,0.004232,0.020865,8.544495,-28.703827,-41.822327,,,,,,,
1532483312,0.036985,0.234819,1.203383,-0.014819,0.022224,-0.023599,0.035962,-0.232667,-0.971891,0.003436,-0.006377,0.016218,8.687317,-28.765076,-41.681213,,,,,,,
1532483312,0.037576,0.234779,1.202733,0.001387,0.013804,-0.036152,0.036537,-0.232628,-0.971879,0.000268,0.003228,0.02443,8.645264,-28.716888,-41.684448,,,,,,,
1532483312,0.037175,0.234282,1.201775,-0.039795,-0.047852,-0.052049,0.036151,-0.232144,-0.972009,0.006116,-0.005801,0.008417,8.779846,-28.712585,-41.830261,,,,,,,
1532483312,0.036878,0.233073,1.20068,-0.070638,-0.018114,-0.055603,0.035873,-0.230968,-0.9723,0.004288,0.00172,0.026545,8.583801,-28.727631,-41.696838,,,,,,,
1532483312,0.036452,0.231157,1.199902,-0.098721,-0.03315,-0.032716,0.035475,-0.229104,-0.972755,0.005846,-0.000266,0.007621,8.529541,-28.683105,-41.708618,,,,,,,
1532483312,0.036074,0.229729,1.199464,-0.052124,-0.022512,-0.019116,0.035118,-0.227713,-0.973095,0.004509,0.006263,0.022823,8.755188,-28.372681,-41.820129,,,,,,,
1532483312,0.035241,0.229126,1.199178,-0.018119,-0.060758,-0.013423,0.034313,-0.227127,-0.97326,0.005268,-0.001831,0.009561,8.497742,-28.440155,-41.800232,,,,,,,
1532483312,0.034135,0.229222,1.19886,0.013926,-0.058552,-0.019272,0.033236,-0.22722,-0.973276,0.004545,0.000673,0.012537,8.484619,-28.460938,-41.729858,,,,,,,
1532483312,0.032709,0.229263,1.198425,-0.0063,-0.075598,-0.018626,0.031847,-0.22726,-0.973313,0.001173,-0.002613,-0.006225,8.491394,-28.408752,-41.953308,,,,,,,
1532483312,0.03205,0.229038,1.198151,-0.016031,-0.020355,-0.013185,0.031207,-0.22704,-0.973385,-0.007099,-0.00001,0.004284,8.216003,-28.481537,-41.827148,,,,,,,
1532483313,0.031784,0.228496,1.198051,-0.033276,-0.01831,-0.001747,0.030953,-0.226513,-0.973516,-0.006264,-0.002338,-0.0003,8.231934,-28.303802,-41.707214,,,,,,,
1532483313,0.031288,0.227795,1.198239,-0.034584,-0.024755,0.012042,0.030475,-0.22583,-0.97369,-0.006733,-0.000457,0.003551,8.179626,-28.358398,-41.752136,,,,,,,
1532483313,0.030695,0.227171,1.198455,-0.03452,-0.032181,0.008811,0.029901,-0.225222,-0.973848,-0.008326,-0.007719,0.008394,8.528015,-28.193634,-41.860474,,,,,,,
1532483313,0.029681,0.226308,1.198572,-0.051369,-0.057685,-0.000114,0.02892,-0.224381,-0.974072,-0.008504,-0.011611,0.004285,8.487488,-28.318146,-41.978333,,,,,,,
1532483313,0.028602,0.225107,1.198484,-0.066154,-0.043848,-0.007742,0.027877,-0.22321,-0.974371,-0.010879,-0.007808,0.008841,8.162109,-28.175873,-41.879211,,,,,,,
1532483313,0.028022,0.223628,1.198427,-0.081054,-0.025793,-0.008962,0.027321,-0.221768,-0.974716,-0.01104,-0.013186,0.011902,7.752747,-28.302948,-41.88092,,,,,,,
1532483313,0.027337,0.2217,1.198279,-0.106526,-0.043889,-0.012668,0.026665,-0.219888,-0.97516,-0.009804,-0.015631,0.008409,8.033875,-28.151489,-42.024231,,,,,,,
1532483313,0.026324,0.219614,1.197973,-0.10316,-0.062981,-0.021227,0.025689,-0.217853,-0.975643,-0.009224,-0.010815,0.010266,8.133606,-27.940033,-42.155823,,,,,,,
1532483313,0.024976,0.218108,1.197713,-0.054324,-0.068257,-0.012993,0.024381,-0.216383,-0.976004,-0.01013,-0.008166,0.011069,7.926819,-28.007721,-41.976318,,,,,,,
1532483313,0.024051,0.217744,1.197469,-0.002158,-0.036276,-0.014101,0.023481,-0.216028,-0.976105,-0.006696,-0.004523,0.014679,7.833313,-27.944397,-41.999451,,,,,,,
1532483313,0.02372,0.217822,1.197276,-0.003343,-0.011851,-0.008674,0.023158,-0.216103,-0.976096,-0.007243,-0.004691,0.015296,7.948242,-27.969635,-41.940002,,,,,,,
,,,,,,,,,,,,,,,,42.473793,-83.405002,245.281952,-1,-1,1532483313,
1532483313,0.023419,0.217562,1.197168,-0.022491,-0.024637,-0.009054,0.022865,-0.215849,-0.976159,-0.001762,-0.009111,0.022393,7.934875,-27.994781,-41.98175,,,,,,,
1532483313,0.022521,0.216863,1.196842,-0.046667,-0.063937,-0.024558,0.021992,-0.215167,-0.976329,0.002422,-0.010266,0.026516,7.803406,-27.95871,-41.969177,,,,,,,
1532483313,0.020785,0.215655,1.196175,-0.068654,-0.105346,-0.043231,0.020302,-0.213987,-0.976625,0.004662,-0.010424,0.021669,7.923401,-27.694916,-42.14093,,,,,,,
1532483313,0.018795,0.214148,1.195066,-0.082175,-0.11167,-0.060523,0.018364,-0.212515,-0.976985,0.006446,-0.006754,0.016154,7.963806,-27.634979,-42.284729,,,,,,,
1532483313,0.017275,0.212268,1.193756,-0.103431,-0.071278,-0.06493,0.016886,-0.210678,-0.97741,0.007955,-0.006195,0.010201,7.882874,-27.569244,-42.257385,,,,,,,
1532483313,0.016885,0.209818,1.192724,-0.136873,-0.010832,-0.043882,0.016514,-0.208282,-0.977929,0.009579,-0.004502,0.013726,7.945312,-27.52533,-42.315674,,,,,,,
1532483313,0.01681,0.206639,1.192021,-0.173208,-0.020496,-0.036012,0.016452,-0.205171,-0.978588,0.013486,-0.003813,0.007671,7.736084,-26.916595,-42.512512,,,,,,,
1532483313,0.016047,0.203231,1.191296,-0.165598,-0.064042,-0.042494,0.015716,-0.201834,-0.979293,0.012329,0.000266,0.005752,7.711609,-26.814056,-42.474121,,,,,,,
1532483313,0.014661,0.200394,1.190412,-0.131453,-0.08949,-0.045252,0.014368,-0.199055,-0.979883,0.012442,-0.00114,0.002496,7.678955,-27.042908,-42.703857,,,,,,,
1532483313,0.01301,0.19821,1.189814,-0.102114,-0.083188,-0.019181,0.012755,-0.196914,-0.980338,0.012865,-0.002686,-0.001535,7.753174,-27.05426,-42.760254,,,,,,,
1532483313,0.011755,0.196254,1.189854,-0.102698,-0.054631,0.011832,0.011529,-0.194997,-0.980736,0.007255,-0.001979,0.000633,7.483582,-26.917389,-42.825012,,,,,,,
1532483313,0.010834,0.194053,1.190422,-0.112644,-0.035599,0.03093,0.010631,-0.192838,-0.981173,-0.001597,-0.006305,0.000811,7.461609,-26.745422,-42.759338,,,,,,,
1532483313,0.010199,0.192018,1.1909,-0.097398,-0.033359,0.012027,0.010011,-0.19084,-0.98157,-0.005831,-0.008653,0.003771,7.222778,-26.624481,-42.92926,,,,,,,
1532483313,0.009196,0.190349,1.190867,-0.078773,-0.064032,-0.015505,0.00903,-0.189202,-0.981897,-0.008389,-0.013969,0.003961,7.241821,-26.737213,-42.92926,,,,,,,
1532483313,0.008134,0.188864,1.190417,-0.074317,-0.051211,-0.02708,0.007989,-0.187743,-0.982186,-0.008996,-0.011857,0.010521,7.235596,-26.654694,-42.973938,,,,,,,
1532483313,0.007334,0.187165,1.190051,-0.094722,-0.042783,-0.017791,0.007206,-0.186075,-0.982509,-0.012745,-0.010047,0.011669,7.158569,-26.249695,-43.156311,,,,,,,
1532483313,0.006615,0.185232,1.189616,-0.096622,-0.041662,-0.030595,0.006502,-0.184175,-0.982872,-0.011812,-0.010512,0.009773,7.221558,-26.277924,-43.072327,,,,,,,
1532483313,0.00579,0.183678,1.188851,-0.066499,-0.053231,-0.047193,0.005693,-0.182647,-0.983162,-0.012269,-0.010407,0.013542,7.287842,-26.494598,-43.167969,,,,,,,
1532483313,0.004818,0.182624,1.187627,-0.050084,-0.060532,-0.071449,0.004738,-0.181611,-0.983359,-0.009941,-0.011901,0.014548,7.209229,-26.25177,-43.302612,,,,,,,
1532483313,0.003704,0.181623,1.185962,-0.055066,-0.075337,-0.089707,0.003643,-0.180626,-0.983545,-0.008374,-0.012184,0.0104,7.409607,-26.07077,-43.257507,,,,,,,
1532483313,0.002438,0.180437,1.184176,-0.063637,-0.07643,-0.08666,0.002398,-0.179459,-0.983762,-0.008548,-0.009109,0.004926,7.303406,-26.270844,-43.379333,,,,,,,
1532483313,0.001493,0.179092,1.182529,-0.070187,-0.046708,-0.079165,0.00147,-0.178136,-0.984005,-0.008519,-0.006404,0.000942,7.27948,-26.111298,-43.363892,,,,,,,
1532483313,0.001245,0.177757,1.181055,-0.067118,-0.020148,-0.073657,0.001225,-0.176823,-0.984242,-0.009785,-0.004894,0.003621,7.155029,-25.853027,-43.382874,,,,,,,
1532483313,0.001075,0.176501,1.179416,-0.061517,-0.029638,-0.088519,0.001058,-0.175586,-0.984463,-0.00884,-0.007016,0.00578,7.321045,-25.670868,-43.30542,,,,,,,
1532483313,0.000682,0.175579,1.177411,-0.033491,-0.033758,-0.107244,0.000671,-0.174678,-0.984625,-0.005081,-0.011601,0.009787,7.280945,-25.6409,-43.360474,,,,,,,
1532483313,0.000647,0.175192,1.175245,-0.017565,-0.011414,-0.105804,0.000637,-0.174297,-0.984693,-0.000255,-0.009983,0.01518,7.507568,-25.944641,-43.383301,,,,,,,
1532483313,0.000885,0.174748,1.17337,-0.02748,-0.003009,-0.087824,0.000872,-0.17386,-0.98477,0.004621,-0.003692,0.018309,7.219421,-25.632568,-43.45813,,,,,,,
1532483313,0.000856,0.173719,1.171731,-0.070217,-0.018001,-0.079021,0.000843,-0.172846,-0.984948,0.012539,-0.004232,0.011499,7.318726,-25.392395,-43.514954,,,,,,,
1532483313,0.000905,0.171856,1.170286,-0.104469,-0.001089,-0.069918,0.000892,-0.171012,-0.985268,0.012292,-0.006112,0.015023,7.456787,-25.526489,-43.245605,,,,,,,
1532483313,0.001042,0.169978,1.169115,-0.084578,-0.01072,-0.050472,0.001027,-0.169161,-0.985588,0.015529,-0.00247,0.015449,7.514404,-25.605804,-43.622864,,,,,,,
1532483313,0.000595,0.168715,1.168408,-0.053039,-0.040547,-0.026675,0.000586,-0.167916,-0.985801,0.01925,-0.001991,0.010246,7.342834,-25.428436,-43.689758,,,,,,,
1532483313,-0.000173,0.167572,1.168099,-0.071477,-0.041731,-0.007819,-0.000171,-0.166788,-0.985993,0.02138,-0.002767,0.004334,7.535828,-25.291473,-43.723938,,,,,,,
1532483313,-0.000461,0.165436,1.168134,-0.126159,0.007,0.01069,-0.000455,-0.164682,-0.986346,0.015668,-0.001196,0.006152,7.490234,-25.05069,-43.654907,,,,,,,
1532483313,0.000189,0.162378,1.168525,-0.170002,0.034531,0.019688,0.000187,-0.161665,-0.986846,0.014996,0.001265,0.016173,7.417908,-24.992767,-43.809937,,,,,,,
1532483313,0.000385,0.158701,1.168804,-0.191107,0.001585,0.010656,0.00038,-0.158035,-0.987433,0.016298,-0.000931,0.015326,7.289368,-24.674255,-43.795654,,,,,,,
1532483313,0.000456,0.154766,1.168968,-0.204891,0.004769,0.00725,0.000451,-0.154149,-0.988047,0.0158,-0.003444,0.018718,7.363037,-24.862976,-43.720276,,,,,,,
1532483313,0.000426,0.150263,1.169287,-0.242385,-0.005986,0.020419,0.000422,-0.149698,-0.988732,0.011999,-0.001196,0.017235,7.354126,-24.840118,-43.928345,,,,,,,
1532483313,0.000352,0.145217,1.169937,-0.258664,0.016243,0.036234,0.000349,-0.144707,-0.989474,0.008471,-0.003684,0.031405,7.361084,-24.316742,-44.183838,,,,,,,
1532483313,0.00146,0.139934,1.170707,-0.27045,0.075753,0.037404,0.001446,-0.139478,-0.990224,0.00594,-0.004077,0.046117,7.423157,-23.998566,-44.200989,,,,,,,
1532483314,0.003429,0.1348,1.171476,-0.251272,0.114072,0.034718,0.003397,-0.134392,-0.990922,0.018301,-0.013588,0.060975,7.550781,-23.849915,-44.23114,,,,,,,
1532483314,0.004595,0.129976,1.172154,-0.245754,0.016295,0.028994,0.004556,-0.12961,-0.991554,0.035102,-0.023435,0.06382,7.630432,-23.539154,-44.436584,,,,,,,
1532483314,0.003063,0.125071,1.17239,-0.242851,-0.123869,-0.006801,0.003039,-0.124745,-0.992184,0.033307,-0.025341,0.06506,7.483887,-23.529449,-44.560913,,,,,,,
1532483314,0.000278,0.121198,1.171596,-0.159885,-0.149002,-0.059863,0.000276,-0.120902,-0.992664,0.030577,-0.022821,0.078892,7.364929,-23.559235,-44.724731,,,,,,,
1532483314,-0.001748,0.119175,1.170627,-0.071235,-0.054427,-0.020657,-0.001736,-0.118893,-0.992905,0.030056,-0.011402,0.071183,7.278381,-23.163605,-44.648926,,,,,,,
1532483314,0.003419,0.119068,1.173564,0.032583,0.549285,0.273719,0.003395,-0.118787,-0.992914,0.00164,0.024594,0.093347,7.509399,-23.25351,-44.812317,,,,,,,
1532483314,0.019973,0.120618,1.183078,0.074988,0.979655,0.557691,0.019827,-0.120326,-0.992536,-0.013678,0.04069,0.110273,8.186401,-23.390198,-44.542664,,,,,,,
1532483314,0.03269,0.120991,1.194072,-0.050202,0.476861,0.498793,0.032446,-0.120696,-0.992159,0.048762,-0.006135,0.09392,8.455444,-23.546082,-44.54541,,,,,,,
1532483314,0.0332,0.118042,1.200881,-0.221566,-0.139842,0.230922,0.032963,-0.117768,-0.992494,0.059368,-0.036193,0.084352,8.30127,-23.336884,-44.688782,,,,,,,
1532483314,0.027866,0.112787,1.203431,-0.276061,-0.229531,0.068786,0.027685,-0.112548,-0.99326,0.025751,-0.013215,0.066686,7.928772,-23.174988,-44.65332,,,,,,,
1532483314,0.029138,0.107052,1.204646,-0.337356,0.35084,0.072821,0.028967,-0.106848,-0.993853,0.060281,0.005804,0.04552,8.12085,-22.763,-44.775146,,,,,,,
1532483314,0.033753,0.098352,1.207983,-0.498508,0.202899,0.27812,0.033584,-0.098194,-0.9946,0.080506,0.03432,-0.074873,8.151855,-22.545837,-44.897461,,,,,,,
1532483314,0.039043,0.086314,1.221064,-0.732411,0.363594,0.841544,0.038888,-0.086207,-0.995518,0.003287,0.08108,0.035664,8.262146,-22.129486,-45.20105,,,,,,,
1532483314,0.039937,0.068844,1.244835,-1.031494,-0.071889,1.329555,0.039832,-0.06879,-0.996836,0.022699,0.091235,0.006311,8.003418,-21.690216,-45.619202,,,,,,,
1532483314,0.026303,0.046953,1.276745,-1.197807,-0.915829,1.679278,0.02627,-0.046935,-0.998552,0.067312,0.014602,0.013872,6.612183,-20.461517,-46.22998,,,,,,,
1532483314,0.001874,0.025503,1.311217,-0.99515,-1.151495,1.671855,0.001873,-0.025501,-0.999673,0.008412,-0.086194,-0.048041,4.930298,-19.828857,-46.818726,,,,,,,
1532483314,-0.013895,0.010052,1.341959,-0.637324,-0.597103,1.463327,-0.013894,-0.010052,-0.999853,0.013878,-0.064441,-0.02801,3.822266,-19.557098,-47.263367,,,,,,,
1532483314,-0.024451,0.001282,1.367892,-0.269251,-0.53913,1.242889,-0.024448,-0.001282,-0.9997,0.091816,0.014176,-0.063349,2.537781,-19.070251,-47.341187,,,,,,,
1532483314,-0.040926,0.000672,1.392405,0.18234,-1.06265,1.262618,-0.040914,-0.000672,-0.999162,0.13355,0.070297,-0.004042,1.414917,-19.125031,-47.197021,,,,,,,
1532483314,-0.069904,0.00875,1.421336,0.669765,-1.630926,1.541462,-0.069845,-0.00875,-0.997519,0.025731,0.027045,0.010016,-0.299866,-19.784058,-47.127136,,,,,,,
1532483314,-0.109224,0.025297,1.456022,1.165171,-2.21444,1.673418,-0.108972,-0.025294,-0.993723,0.019235,0.003779,0.045298,-2.88324,-20.555481,-46.344971,,,,,,,
1532483314,-0.170282,0.04842,1.487517,1.471282,-3.461885,1.176,-0.169262,-0.048401,-0.984382,0.069744,0.016998,-0.0794,-6.126282,-21.964966,-45.491211,,,,,,,
1532483314,-0.220362,0.077269,1.508475,1.582848,-0.349552,0.440667,-0.21793,-0.077193,-0.972907,-0.074138,-0.071382,-0.013834,-8.296265,-23.148651,-44.542236,,,,,,,
1532483314,-0.207934,0.092465,1.51599,0.637156,0.132315,0.07077,-0.205557,-0.092334,-0.974279,-0.339716,-0.081967,-0.612406,-8.304138,-24.033203,-44.161316,,,,,,,
1532483314,-0.216185,0.104038,1.516579,0.443469,-0.458385,-0.08234,-0.213345,-0.103851,-0.971442,0.014248,-0.016099,0.109381,-8.389343,-24.395874,-43.843262,,,,,,,
1532483314,-0.22754,0.102827,1.520387,-0.302559,-0.814749,0.386979,-0.22439,-0.102646,-0.969078,0.044748,-0.055954,0.008583,-9.139465,-24.411377,-43.895142,,,,,,,
1532483314,-0.256432,0.087848,1.533843,-0.672022,-1.552718,1.191749,-0.252653,-0.087735,-0.963571,0.171186,-0.165866,0.009011,-10.808655,-23.51944,-43.882751,,,,,,,
1532483314,-0.287971,0.063567,1.565323,-0.77695,-1.080027,2.145396,-0.283434,-0.063525,-0.956885,0.542238,-0.126829,0.075461,-12.697754,-22.769409,-43.738037,,,,,,,
1532483314,-0.280836,0.049105,1.604654,0.420537,0.758835,1.956118,-0.276825,-0.049086,-0.959665,-0.054229,-0.042482,-0.01087,-13.348022,-22.104523,-43.803772,,,,,,,
1532483314,-0.270518,0.057692,1.640596,0.972191,0.682487,1.422852,-0.266786,-0.05766,-0.962029,-0.082274,-0.083346,0.076348,-13.43158,-22.549103,-43.578064,,,,,,,
1532483314,-0.255137,0.065784,1.664299,0.519748,0.764347,0.822698,-0.251832,-0.065736,-0.965536,0.027619,0.049318,-0.031489,-13.384827,-22.898804,-43.44104,,,,,,,
1532483314,-0.245806,0.069715,1.679992,0.353862,0.459502,0.707688,-0.242747,-0.069658,-0.967585,0.059398,0.017992,-0.069387,-13.11322,-22.674042,-43.403198,,,,,,,
1532483314,-0.241266,0.073304,1.697083,0.431993,0.217497,0.874936,-0.23829,-0.073238,-0.968428,0.122949,-0.081364,-0.119386,-13.298279,-23.054718,-43.229187,,,,,,,
1532483314,-0.241997,0.079547,1.719637,0.653313,-0.049946,1.074234,-0.238884,-0.079463,-0.967791,0.13604,-0.101674,-0.132002,-13.834351,-23.224609,-43.033997,,,,,,,
1532483314,-0.243089,0.088255,1.742902,0.70585,0.157875,0.984572,-0.239765,-0.08814,-0.966821,0.156772,-0.033945,-0.050696,-14.222839,-23.607086,-42.740173,,,,,,,
1532483314,-0.235,0.095073,1.764731,0.496603,0.750783,0.985163,-0.231791,-0.094929,-0.968122,0.050105,-0.044368,0.059583,-14.20813,-23.721741,-42.717346,,,,,,,
1532483314,-0.213576,0.09605,1.784093,0.104125,1.426887,0.86815,-0.210979,-0.095902,-0.972775,0.03419,-0.078765,0.155346,-13.616882,-23.660828,-42.851562,,,,,,,
1532483314,-0.176042,0.09049,1.796152,-0.273411,2.310445,0.502196,-0.174418,-0.090366,-0.980516,0.00323,-0.094921,0.247698,-12.066589,-23.583313,-43.494934,,,,,,,
1532483314,-0.116914,0.08277,1.801227,-0.359563,3.36955,0.206887,-0.116248,-0.082676,-0.989773,0.017219,0.011646,0.230069,-9.642212,-23.203918,-44.32019,,,,,,,
,,,,,,,,,,,,,,,,42.473817,-83.404993,245.50737,-1,-1,1532483314,
1532483314,-0.06237,0.064216,1.805218,-1.153294,2.205023,0.469042,-0.062201,-0.064172,-0.995998,-0.018106,-0.08985,-0.375324,-7.093994,-22.371277,-45.032227,,,,,,,
1532483314,-0.015151,0.046348,1.815759,-0.757387,2.548521,0.580589,-0.015134,-0.046332,-0.998811,0.065976,-0.099359,0.181612,-5.508179,-21.56546,-45.660461,,,,,,,
1532483314,-0.007199,0.029238,1.828782,-0.93192,-0.19775,0.773671,-0.007196,-0.029234,-0.999547,0.496331,-0.026903,-0.769191,-5.502563,-20.780182,-46.131409,,,,,,,
1532483314,-0.011548,0.012333,1.83958,-0.773537,-0.49309,0.330776,-0.011547,-0.012333,-0.999857,0.228665,0.062656,0.140192,-5.85437,-19.805908,-46.273438,,,,,,,
1532483314,-0.028486,-0.002106,1.84215,-0.703156,-0.859496,0.047922,-0.028482,0.002106,-0.999592,0.055719,0.015106,-0.100857,-6.632935,-19.398956,-46.47345,,,,,,,
1532483314,-0.043474,-0.014235,1.83908,-0.536059,-0.700749,-0.192363,-0.043456,0.014234,-0.998954,0.124739,0.05527,0.040519,-7.155151,-18.493866,-46.61731,,,,,,,
1532483314,-0.055039,-0.019704,1.839694,-0.076286,-0.471551,0.280633,-0.055001,0.019703,-0.998292,0.040596,-0.065693,0.046296,-7.155151,-18.493866,-46.61731,,,,,,,
1532483314,-0.05819,-0.014469,1.855952,0.53686,0.06887,1.089946,-0.058151,0.014468,-0.998203,-0.046692,-0.130282,0.139667,-7.695435,-18.092316,-46.502991,,,,,,,
1532483314,-0.048174,0.000686,1.882407,0.981707,0.6873,1.308034,-0.048155,-0.000686,-0.99884,0.073897,-0.076218,0.189269,-8.298645,-18.314056,-46.336853,,,,,,,
1532483314,-0.03307,0.020332,1.906534,1.002714,0.776639,1.083091,-0.033057,-0.020331,-0.999247,0.203193,0.067908,0.119852,-8.508179,-18.922211,-46.262085,,,,,,,
1532483314,-0.018994,0.037198,1.926914,0.820498,0.700308,0.976413,-0.01898,-0.037189,-0.999128,0.198332,0.076999,0.120481,-8.073425,-19.881958,-46.098267,,,,,,,
1532483314,-0.008098,0.055363,1.94391,1.018919,0.578479,0.725651,-0.008085,-0.055335,-0.998435,0.117994,0.006827,0.192405,-7.801208,-20.572388,-45.885559,,,,,,,
1532483315,0.004539,0.078103,1.95502,1.19461,0.715991,0.482207,0.004525,-0.078024,-0.996941,0.081,0.010443,0.282616,-7.327637,-21.446991,-45.54071,,,,,,,
1532483315,0.018942,0.101115,1.963407,1.092419,0.803318,0.417071,0.018844,-0.100943,-0.994714,0.115617,0.072684,0.31173,-7.19043,-22.084686,-45.10614,,,,,,,
1532483315,0.037579,0.120144,1.971972,0.85324,1.149157,0.495787,0.037299,-0.119855,-0.99209,0.128091,0.089383,0.342798,-6.904358,-23.131714,-44.654236,,,,,,,
1532483315,0.065651,0.134963,1.983315,0.628981,1.666741,0.683158,0.065007,-0.134554,-0.988771,0.091929,0.061739,0.385363,-5.923767,-24.210632,-44.513855,,,,,,,
1532483315,0.103232,0.145591,1.999834,0.341146,2.199698,0.970714,0.101959,-0.145078,-0.984153,0.05983,0.074353,0.312003,-4.856262,-24.648071,-44.497925,,,,,,,
1532483315,0.14795,0.150526,2.022486,-0.025913,2.488108,1.235502,0.145744,-0.149958,-0.977891,0.096474,0.112834,0.211045,-3.713135,-24.865265,-44.305786,,,,,,,
1532483315,0.194922,0.151223,2.049953,-0.289843,2.630451,1.397971,0.191479,-0.150647,-0.969866,0.057452,0.169309,0.199603,-2.012085,-25.032745,-44.320251,,,,,,,
1532483315,0.246016,0.150418,2.078987,-0.375984,2.914274,1.377745,0.240792,-0.149852,-0.958938,-0.017251,0.162654,0.276672,-0.434448,-24.851715,-44.515747,,,,,,,
1532483315,0.304893,0.148956,2.106318,-0.484368,3.258204,1.229676,0.296866,-0.148406,-0.943316,-0.00582,0.191237,0.299227,1.424377,-24.802979,-44.582275,,,,,,,
1532483315,0.363165,0.146115,2.131159,-0.559834,2.945252,1.060748,0.351449,-0.145596,-0.924816,0.04737,0.27264,0.193721,3.834229,-24.327271,-44.65509,,,,,,,
1532483315,0.413411,0.143449,2.15501,-0.574168,2.569993,1.047977,0.397608,-0.142958,-0.906349,0.022634,0.269423,0.136543,5.95929,-23.947723,-44.615479,,,,,,,
1532483315,0.459932,0.140493,2.179648,-0.742219,2.550635,1.038717,0.439513,-0.140031,-0.887253,0.002153,0.258913,0.149414,7.992188,-23.714478,-44.469055,,,,,,,
1532483315,0.509325,0.132252,2.206283,-1.140947,2.725897,0.939314,0.48333,-0.131867,-0.865448,0.044868,0.299058,0.154496,9.50415,-23.539948,-44.276978,,,,,,,
1532483315,0.561069,0.120214,2.235492,-1.267638,2.813683,0.993034,0.528251,-0.119925,-0.840575,0.042977,0.29566,0.108565,11.564087,-22.74826,-44.057312,,,,,,,
1532483315,0.614081,0.11477,2.266854,-0.980743,2.883049,1.258996,0.572416,-0.114518,-0.811925,0.048022,0.281006,0.09609,13.591858,-21.777008,-43.994873,,,,,,,
1532483315,0.668936,0.116851,2.299238,-0.88186,2.994269,1.379381,0.615922,-0.116585,-0.779131,0.033386,0.285607,0.085451,15.731689,-21.235352,-43.64386,,,,,,,
1532483315,0.727943,0.116932,2.332794,-1.226122,3.270962,1.20685,0.660791,-0.116665,-0.741445,0.086295,0.344632,0.004277,17.780518,-20.874176,-43.095642,,,,,,,
1532483315,0.789521,0.109744,2.368497,-1.630297,3.254543,0.946672,0.705743,-0.109523,-0.699947,0.151969,0.35284,-0.118656,19.836731,-20.389618,-42.230835,,,,,,,
1532483315,0.844692,0.097676,2.40473,-1.752318,2.729188,0.713084,0.744201,-0.09752,-0.660795,0.176667,0.343187,-0.224993,22.138916,-19.565918,-41.473816,,,,,,,
1532483315,0.888525,0.085257,2.437278,-1.567001,2.187209,0.501522,0.773321,-0.085154,-0.628265,0.132074,0.321131,-0.183716,24.384583,-18.783203,-40.933655,,,,,,,
1532483315,0.930481,0.072844,2.465429,-1.496396,2.307346,0.299913,0.799778,-0.07278,-0.595862,0.168804,0.405513,-0.079615,26.066528,-17.852417,-40.187134,,,,,,,
1532483315,0.978214,0.056502,2.493727,-1.754369,2.603605,0.065016,0.828174,-0.056472,-0.557612,0.205884,0.409804,-0.061407,27.963379,-17.023743,-39.547974,,,,,,,
1532483315,1.030719,0.034263,2.526972,-2.169869,2.757923,-0.107176,0.857162,-0.034256,-0.513898,0.247056,0.410202,-0.11719,29.869568,-15.574951,-38.718079,,,,,,,
1532483315,1.085193,0.007657,2.566697,-2.521307,2.787686,-0.223567,0.884363,-0.007657,-0.466726,0.271429,0.390775,-0.16598,31.829895,-14.083862,-37.734985,,,,,,,
1532483315,1.141725,-0.020907,2.612245,-2.792323,2.853602,-0.313958,0.909149,0.020905,-0.415933,0.263702,0.366546,-0.189795,34.000977,-12.137634,-36.473083,,,,,,,
1532483315,1.201616,-0.051328,2.662692,-2.997744,2.957287,-0.501039,0.93139,0.051305,-0.360374,0.244178,0.367961,-0.215127,36.11261,-10.277008,-35.082947,,,,,,,
1532483315,1.26526,-0.083625,2.715567,-3.052042,3.045518,-0.742138,0.950347,0.083527,-0.299751,0.214936,0.356567,-0.258232,38.387268,-7.887634,-33.277161,,,,,,,
1532483315,1.331219,-0.116145,2.768524,-2.939331,3.043303,-0.910658,0.964887,0.115884,-0.235692,0.170199,0.318137,-0.298609,40.32251,-5.333679,-31.337219,,,,,,,
1532483315,1.39635,-0.145392,2.818767,-2.629389,2.841769,-0.905491,0.974425,0.144881,-0.17173,0.161256,0.288393,-0.33242,42.490601,-2.819153,-29.340881,,,,,,,
1532483315,1.453824,-0.168505,2.863208,-2.176641,2.319846,-0.772865,0.979093,0.167709,-0.115052,0.169864,0.279603,-0.359512,44.063721,-0.624542,-26.716736,,,,,,,
1532483315,1.497353,-0.184866,2.899065,-1.655638,1.584032,-0.576299,0.980304,0.183815,-0.072126,0.200437,0.285851,-0.355334,45.191833,1.261292,-24.712402,,,,,,,
1532483315,1.524842,-0.196099,2.926466,-1.249651,0.855753,-0.438028,0.979791,0.194845,-0.045058,0.154746,0.253199,-0.315828,46.284485,2.624359,-23.21637,,,,,,,
1532483315,1.539498,-0.204984,2.948545,-1.054015,0.352993,-0.396864,0.978577,0.203552,-0.030638,0.111648,0.216233,-0.270052,46.616394,3.990662,-22.145142,,,,,,,
1532483315,1.548036,-0.214062,2.969393,-1.053881,0.152322,-0.45324,0.976915,0.212431,-0.022239,0.083266,0.198488,-0.218239,47.055969,4.89032,-21.496521,,,,,,,
1532483315,1.555749,-0.224175,2.991629,-1.140178,0.158834,-0.510002,0.97486,0.222302,-0.01467,0.05314,0.161212,-0.191293,46.853455,5.628632,-21.229187,,,,,,,
1532483315,1.565256,-0.235051,3.016096,-1.255652,0.219421,-0.545677,0.97248,0.232893,-0.005388,0.033822,0.137484,-0.183318,46.94397,6.431305,-20.937683,,,,,,,
1532483315,1.57654,-0.245957,3.043443,-1.383433,0.22666,-0.54562,0.969881,0.243485,0.005571,0.039701,0.136871,-0.18741,46.836182,7.690582,-20.585327,,,,,,,
1532483315,1.587701,-0.256328,3.073028,-1.475112,0.170126,-0.536769,0.967181,0.25353,0.016351,0.026639,0.109339,-0.197031,46.803528,8.274109,-20.068298,,,,,,,
1532483315,1.59929,-0.266484,3.105,-1.590862,0.160456,-0.553636,0.964303,0.263341,0.027484,0.011283,0.087535,-0.204715,47.015076,9.48587,-19.774231,,,,,,,
1532483315,1.61048,-0.276019,3.139622,-1.714728,0.050636,-0.528547,0.961382,0.272528,0.038171,0.015226,0.06399,-0.238946,46.901245,10.709229,-19.330811,,,,,,,
1532483315,1.621084,-0.284692,-3.105695,-1.871369,-0.033653,-0.517714,0.958527,0.280862,0.048243,0.018234,0.048042,-0.270594,46.944641,11.749634,-18.647034,,,,,,,
1532483315,1.630307,-0.293149,-3.064297,-2.036754,-0.187919,-0.549968,0.955636,0.288968,0.056938,0.020316,0.036669,-0.314079,46.825134,13.066528,-18.254883,,,,,,,
1532483315,1.638314,-0.302184,-3.019263,-2.185625,-0.313306,-0.61375,0.952506,0.297606,0.064409,0.032236,0.033236,-0.349779,46.608337,14.420624,-18.001038,,,,,,,
1532483315,1.64439,-0.311738,-2.971848,-2.265742,-0.464224,-0.650969,0.949217,0.306713,0.069983,0.029802,0.008884,-0.380865,46.306458,15.716675,-17.491455,,,,,,,
1532483315,1.650177,-0.321263,-2.92275,-2.327436,-0.470686,-0.65415,0.945841,0.315766,0.07524,0.02123,-0.011353,-0.395568,46.250977,16.946777,-17.122009,,,,,,,
1532483315,1.657834,-0.330413,-2.872837,-2.332739,-0.393061,-0.659171,0.94232,0.324434,0.082225,0.022249,-0.020921,-0.378765,45.963074,18.339966,-16.90802,,,,,,,
1532483315,1.666021,-0.3392,-2.823782,-2.245661,-0.415316,-0.645068,0.938741,0.332733,0.089662,0.038951,-0.016983,-0.389177,45.318604,19.775848,-16.338928,,,,,,,
1532483315,1.672299,-0.347051,-2.776903,-2.134728,-0.519582,-0.591586,0.935531,0.340126,0.095286,0.03035,-0.034127,-0.39648,44.828918,21.04718,-15.719849,,,,,,,
1532483315,1.675952,-0.353799,-2.731591,-2.086508,-0.655823,-0.542493,0.932873,0.346464,0.098461,0.021945,-0.059858,-0.393489,44.298279,22.251526,-15.243103,,,,,,,
1532483315,1.67677,-0.359549,-2.685945,-2.141476,-0.837928,-0.4964,0.930796,0.351852,0.099011,0.025777,-0.085479,-0.36514,43.894775,23.274536,-14.787781,,,,,,,
1532483316,1.675605,-0.363684,-2.637383,-2.344174,-0.955604,-0.409828,0.929456,0.35572,0.097773,0.043673,-0.083244,-0.319957,43.608887,24.489838,-14.361938,,,,,,,
1532483316,1.675631,-0.364469,-2.582638,-2.696402,-0.996292,-0.242282,0.929175,0.356453,0.097768,0.089563,-0.037254,-0.273824,42.980408,25.360291,-14.127197,,,,,,,
1532483316,1.677146,-0.361182,-2.520039,-3.093925,-1.077327,-0.100178,0.930186,0.35338,0.0993,0.152761,0.018202,-0.247569,42.445984,26.401917,-13.399658,,,,,,,
1532483316,1.678765,-0.355019,-2.450247,-3.420274,-1.19417,-0.00606,0.932172,0.347608,0.101038,0.188113,0.046816,-0.226679,42.363464,27.220673,-12.764954,,,,,,,
1532483316,1.679024,-0.345729,-2.375475,-3.629264,-1.337634,0.135649,0.935316,0.338882,0.101624,0.132464,0.016556,-0.234589,42.087646,28.204834,-11.890625,,,,,,,
1532483316,1.675325,-0.334064,-2.299598,-3.626319,-1.520881,0.217831,0.939552,0.327886,0.09857,0.047417,-0.029729,-0.239912,42.063843,28.666168,-10.865417,,,,,,,
1532483316,1.666012,-0.325393,-2.225727,-3.475268,-1.791517,-0.055757,0.943225,0.319681,0.090083,0.026318,-0.046793,-0.25651,42.007507,29.024109,-9.966553,,,,,,,
1532483316,1.648263,-0.325813,-2.157244,-3.106201,-2.091099,-0.431307,0.944541,0.320079,0.073317,-0.019584,-0.099391,-0.202269,41.803101,29.841492,-9.570557,,,,,,,
1532483316,1.626754,-0.33391,-2.097054,-2.667249,-1.986067,-0.687607,0.943282,0.327739,0.052839,-0.073042,-0.118999,-0.126829,41.080872,30.633484,-9.070679,,,,,,,
1532483316,1.609516,-0.346532,-2.047099,-2.117161,-1.504363,-0.748513,0.939844,0.339638,0.036409,-0.079065,-0.188271,-0.057619,40.386902,31.715027,-9.103027,,,,,,,
1532483316,1.600274,-0.358253,-2.010979,-1.425986,-0.842911,-0.552763,0.936096,0.350639,0.027602,-0.026154,-0.245369,-0.019057,39.641113,32.574493,-8.890259,,,,,,,
1532483316,1.59917,-0.365355,-1.989456,-0.770813,-0.229595,-0.306739,0.933613,0.357281,0.026497,0.044475,-0.226543,-0.015877,39.282104,33.163788,-8.705994,,,,,,,
1532483316,1.602691,-0.370643,-1.979827,-0.279521,0.088975,-0.287446,0.931613,0.362214,0.029723,0.095182,-0.220354,-0.02275,38.945862,33.447601,-8.083557,,,,,,,
1532483316,1.606776,-0.376899,-1.977923,0.002136,0.198035,-0.323776,0.929201,0.368039,0.033446,0.106688,-0.263043,-0.057479,38.818665,33.907074,-8.027832,,,,,,,
,,,,,,,,,,,,,,,,42.473859,-83.404921,257.56112,0.727234,-1,1532483316,
1532483316,1.609095,-0.382259,-1.978665,0.024787,0.05509,-0.214446,0.927136,0.373017,0.035525,0.124088,-0.327027,-0.108691,38.586243,34.150513,-7.898438,,,,,,,
1532483316,1.607121,-0.383305,-1.976518,-0.201157,-0.280353,0.0506,0.926813,0.373988,0.033681,0.130728,-0.354014,-0.139928,38.437378,34.499359,-7.960815,,,,,,,
1532483316,1.599666,-0.379109,-1.968283,-0.51895,-0.649759,0.273496,0.928599,0.370093,0.026816,0.103414,-0.34043,-0.152274,38.478943,34.282532,-7.930481,,,,,,,
1532483316,1.587776,-0.370378,-1.954919,-0.678541,-0.95736,0.518481,0.932048,0.361967,0.015828,0.117512,-0.31468,-0.141606,38.520935,34.249847,-8.027649,,,,,,,
1532483316,1.571753,-0.35795,-1.941785,-0.564883,-1.060963,0.657196,0.936609,0.350355,0.000896,0.121115,-0.253736,-0.102016,38.585938,34.170959,-8.381409,,,,,,,
1532483316,1.554236,-0.344299,-1.934472,-0.18568,-0.960644,0.703357,0.941176,0.337537,-0.015588,0.131731,-0.18028,-0.072135,39.043457,33.537933,-8.661926,,,,,,,
1532483316,1.535803,-0.329983,-1.937236,0.354834,-0.840792,0.71927,0.945461,0.324027,-0.033098,0.170414,-0.100516,-0.059904,39.548828,32.875397,-9.403992,,,,,,,
1532483316,1.516188,-0.314811,-1.952516,1.0071,-0.68462,0.736144,0.94943,0.309637,-0.051898,0.166766,-0.053213,-0.046948,39.698425,32.286774,-10.382385,,,,,,,
1532483316,1.495942,-0.297636,-1.981454,1.687266,-0.529693,0.800324,0.953348,0.293261,-0.071496,0.139975,-0.040576,-0.022162,40.071777,31.70459,-11.36377,,,,,,,
1532483316,1.474895,-0.277078,-2.022522,2.253903,-0.430412,0.903879,0.957432,0.273546,-0.092102,0.127559,-0.035402,0.008026,40.318054,30.716858,-12.67218,,,,,,,
1532483316,1.455981,-0.252063,-2.071622,2.610768,-0.23072,1.061975,0.962017,0.249402,-0.110943,0.084553,-0.016736,0.086879,40.853882,29.613434,-14.39856,,,,,,,
1532483316,1.442404,-0.222885,-2.123127,2.670734,-0.001678,1.20893,0.96723,0.221044,-0.124872,0.050699,0.043803,0.141046,41.343323,27.933136,-15.828857,,,,,,,
1532483316,1.434415,-0.190912,-2.172267,2.556262,0.179564,1.288877,0.972709,0.189754,-0.133488,0.005807,0.074406,0.155049,41.768005,26.18335,-17.312256,,,,,,,
1532483316,1.434103,-0.159025,-2.219508,2.548444,0.575324,1.230043,0.978166,0.158355,-0.134547,-0.000688,0.111756,0.20016,42.654419,24.313599,-18.616577,,,,,,,
1532483316,1.445477,-0.128943,-2.271319,2.924797,1.177154,1.113633,0.983915,0.128586,-0.123953,-0.039228,0.14798,0.32926,43.438965,22.525543,-19.269958,,,,,,,
1532483316,1.471316,-0.099732,-2.335275,3.605302,1.96597,1.1267,0.990105,0.099567,-0.098823,-0.049706,0.179333,0.378654,44.245728,20.214783,-19.517273,,,,,,,
1532483316,1.512043,-0.069415,-2.415775,4.461973,2.629149,1.237876,0.995864,0.069359,-0.058578,-0.054122,0.149284,0.324569,45.520996,17.640228,-19.404297,,,,,,,
1532483316,1.566831,-0.042475,-2.513086,5.152116,3.249466,1.13845,0.999084,0.042462,-0.003962,-0.051437,0.137622,0.255579,46.756836,15.128082,-18.572083,,,,,,,
1532483316,1.633162,-0.02597,-2.621076,5.502214,3.609451,0.895808,0.997713,0.025967,0.062303,-0.026918,0.159885,0.184614,47.895935,12.14502,-16.99054,,,,,,,
1532483316,1.702662,-0.021133,-2.731183,5.389617,3.612309,0.703364,0.99109,0.021131,0.131453,-0.009568,0.166323,0.072877,49.210693,9.568329,-14.952026,,,,,,,
1532483316,1.770274,-0.026341,-2.831582,4.729176,3.413452,0.492345,0.979823,0.026338,0.198087,-0.026072,0.148253,-0.012922,50.347717,7.567383,-12.563782,,,,,,,
1532483316,1.82902,-0.037009,-2.91235,3.626952,2.793595,0.356038,0.966176,0.037001,0.255186,-0.009312,0.175722,-0.100477,51.171326,5.92688,-9.983154,,,,,,,
1532483316,1.869167,-0.045608,-2.966818,2.158025,1.732516,0.32433,0.954815,0.045592,0.293656,-0.006252,0.208009,-0.188919,51.609985,4.86557,-7.610107,,,,,,,
1532483316,1.888256,-0.047356,-2.989014,0.435757,0.589738,0.174096,0.948959,0.047338,0.311801,-0.021896,0.244273,-0.212192,52.033813,4.266357,-5.999451,,,,,,,
1532483316,1.889086,-0.043904,-2.978849,-1.084537,-0.257687,-0.090578,0.948849,0.04389,0.312638,-0.072537,0.296671,-0.118577,51.883362,4.132843,-5.465027,,,,,,,
1532483316,1.880555,-0.036879,-2.944708,-2.05149,-0.577437,-0.24444,0.951752,0.03687,0.304619,-0.127304,0.329783,0.034218,52.132324,4.513519,-5.562134,,,,,,,
1532483316,1.869427,-0.029041,-2.899538,-2.358345,-0.633776,-0.348815,0.95533,0.029037,0.294085,-0.167045,0.367173,0.14433,52.030334,4.881226,-5.856934,,,,,,,
1532483316,1.858471,-0.024927,-2.854656,-2.064252,-0.597326,-0.539702,0.958601,0.024925,0.283633,-0.165998,0.383797,0.176969,52.022705,5.271332,-6.328247,,,,,,,
1532483316,1.849854,-0.029141,-2.819042,-1.410831,-0.349343,-0.827947,0.9609,0.029137,0.275331,-0.186135,0.374031,0.179839,51.715881,6.229584,-6.653687,,,,,,,
1532483316,1.850208,-0.043905,-2.793766,-0.803521,0.158517,-1.229581,0.960284,0.043891,0.275522,-0.22475,0.345132,0.174414,51.38501,6.942352,-6.848816,,,,,,,
1532483316,1.85919,-0.068596,-2.777037,-0.297316,0.571027,-1.51091,0.95644,0.068542,0.283742,-0.213765,0.267411,0.121059,51.380798,8.294098,-6.519043,,,,,,,
1532483316,1.871265,-0.099593,-2.763039,-0.272277,0.50561,-1.833462,0.950458,0.099428,0.294499,-0.172168,0.253767,0.013103,51.012085,9.842407,-6.046143,,,,,,,
1532483316,1.878572,-0.134646,-2.740923,-0.710027,0.021366,-2.09761,0.944377,0.134239,0.300195,-0.152232,0.253105,-0.096063,50.981567,11.54483,-5.58197,,,,,,,
1532483316,1.876855,-0.170011,-2.707098,-1.291051,-0.565627,-2.264547,0.939775,0.169193,0.296957,-0.114183,0.194683,-0.160513,50.228027,13.886963,-5.28064,,,,,,,
1532483316,1.867501,-0.205229,-2.661712,-1.793716,-1.084553,-2.410682,0.93623,0.203791,0.286233,-0.072598,0.136007,-0.160256,49.615601,16.365356,-5.258972,,,,,,,
1532483316,1.853065,-0.240946,-2.607731,-2.157963,-1.440838,-2.5058,0.932675,0.238621,0.270487,-0.011792,0.080898,-0.150675,48.777405,18.464294,-5.663879,,,,,,,
1532483317,1.836895,-0.276277,-2.547745,-2.424214,-1.68905,-2.490145,0.92821,0.272776,0.252995,0.037229,0.013937,-0.09261,47.768433,21.221527,-6.163513,,,,,,,
1532483317,1.818582,-0.310793,-2.48335,-2.638864,-1.936265,-2.442755,0.923006,0.305814,0.233506,0.089232,-0.030713,-0.083634,46.408203,23.479462,-6.555664,,,,,,,
1532483317,1.800706,-0.34416,-2.416242,-2.732073,-1.997457,-2.348768,0.916582,0.337406,0.214525,0.120252,-0.079472,-0.050462,44.927673,26.24057,-6.794556,,,,,,,
1532483317,1.786153,-0.376334,-2.349964,-2.645449,-1.816213,-2.201614,0.908528,0.367514,0.198739,0.1394,-0.132437,0.000403,43.636108,28.445496,-6.882935,,,,,,,
1532483317,1.778387,-0.405507,-2.288424,-2.3837,-1.409958,-1.916272,0.899167,0.394485,0.189387,0.167972,-0.182113,0.045339,41.95343,30.619629,-6.721863,,,,,,,
1532483317,1.776691,-0.4291,-2.236007,-1.939332,-1.012619,-1.483148,0.890127,0.416053,0.185907,0.240748,-0.194861,0.063025,40.560791,32.561859,-6.436035,,,,,,,
1532483317,1.7771,-0.445534,-2.196739,-1.368173,-0.707851,-0.990896,0.883238,0.43094,0.184845,0.318467,-0.156068,0.066986,39.444153,34.01828,-5.80835,,,,,,,
1532483317,1.777053,-0.455601,-2.171332,-0.831397,-0.484546,-0.595454,0.878956,0.440002,0.183906,0.3782,-0.088317,0.052254,38.678955,34.976776,-5.242432,,,,,,,
1532483317,1.775433,-0.461745,-2.157551,-0.404784,-0.324507,-0.346962,0.876589,0.445511,0.181929,0.392972,-0.041672,0.041337,38.21106,35.474487,-5.107727,,,,,,,
1532483317,1.7722,-0.465004,-2.152614,-0.070079,-0.267579,-0.133514,0.875746,0.448427,0.178802,0.30649,-0.077028,0.031433,38.065674,35.927979,-4.946533,,,,,,,
1532483317,1.765651,-0.466012,-2.153655,0.094499,-0.333929,0.013683,0.876454,0.449327,0.172976,0.199291,-0.129838,0.001996,37.893127,36.263367,-5.08313,,,,,,,
1532483317,1.758012,-0.464863,-2.155531,0.024872,-0.365268,0.097561,0.878256,0.448301,0.166372,0.073099,-0.201993,-0.016378,37.841797,36.306122,-5.49231,,,,,,,
1532483317,1.750386,-0.461982,-2.153565,-0.222989,-0.478598,0.149335,0.880767,0.445723,0.159899,-0.00447,-0.226668,-0.035693,37.914551,35.964813,-5.644348,,,,,,,
1532483317,1.742833,-0.456326,-2.145668,-0.508139,-0.605035,0.262187,0.884419,0.440653,0.153672,-0.045873,-0.232492,-0.039246,37.912842,35.83783,-5.818909,,,,,,,
1532483317,1.734681,-0.447879,-2.132882,-0.714099,-0.748258,0.3539,0.889284,0.433055,0.147059,-0.05327,-0.218791,-0.026759,37.973633,35.996399,-5.715698,,,,,,,
,,,,,,,,,,,,,,,,42.473881,-83.404943,222.913514,0.727234,-1,1532483317,
1532483317,1.724928,-0.437866,-2.117586,-0.78611,-0.865518,0.396844,0.894917,0.424007,0.139038,-0.033527,-0.180996,-0.016555,38.047791,36.132172,-5.920288,,,,,,,
1532483317,1.713986,-0.427435,-2.102084,-0.779063,-0.84116,0.418379,0.900713,0.414538,0.129862,-0.028948,-0.136096,0.004766,38.322083,35.707062,-5.941895,,,,,,,
1532483317,1.705137,-0.417274,-2.086588,-0.774472,-0.733661,0.394505,0.905955,0.40527,0.122444,-0.014536,-0.083737,0.010018,38.566772,34.960938,-6.212708,,,,,,,
1532483317,1.697004,-0.408159,-2.071089,-0.770306,-0.748285,0.341259,0.910547,0.39692,0.115532,0.052664,-0.012429,-0.024101,38.762573,35.061676,-6.08667,,,,,,,
1532483317,1.686365,-0.399202,-2.056637,-0.674299,-0.864282,0.396566,0.91522,0.388683,0.106244,0.118411,0.008549,-0.051251,38.755432,34.755737,-6.149353,,,,,,,
1532483317,1.674609,-0.389137,-2.045309,-0.539197,-0.733578,0.455888,0.92025,0.37939,0.095879,0.130363,-0.011577,-0.049721,38.931458,34.317963,-6.350769,,,,,,,
1532483317,1.666668,-0.379535,-2.03596,-0.45906,-0.499427,0.428573,0.924566,0.370489,0.088912,0.157587,0.011683,-0.033904,39.574097,34.399109,-6.540955,,,,,,,
1532483317,1.66182,-0.36963,-2.027705,-0.433642,-0.340191,0.487292,0.928596,0.361271,0.084759,0.175729,0.023098,-0.053692,39.603333,33.922943,-6.723389,,,,,,,
1532483317,1.6593,-0.357589,-2.019559,-0.44485,-0.238824,0.631366,0.933072,0.350016,0.082797,0.162371,0.004598,-0.065127,39.934692,33.425446,-6.528809,,,,,,,
1532483317,1.657693,-0.341747,-2.011699,-0.445456,-0.199412,0.840256,0.938611,0.335133,0.081768,0.118746,-0.019185,-0.070202,40.091187,33.055786,-6.263977,,,,,,,
1532483317,1.657615,-0.321539,-2.003457,-0.504799,-0.11867,1.056903,0.945172,0.316027,0.082265,0.064487,-0.015902,-0.066183,40.663269,32.659363,-6.346069,,,,,,,
1532483317,1.656798,-0.297413,-1.994526,-0.55675,-0.223742,1.226952,0.95256,0.293048,0.082125,0.007401,0.001294,-0.072237,41.299194,31.916351,-6.253479,,,,,,,
1532483317,1.655392,-0.270926,-1.983982,-0.664681,-0.234927,1.308169,0.960073,0.267624,0.081413,-0.045202,0.046707,-0.03672,42.323364,31.26825,-6.152405,,,,,,,
1532483317,1.653069,-0.243413,-1.971666,-0.75671,-0.286238,1.336207,0.967234,0.241016,0.079757,-0.07519,0.094876,-0.002303,42.850159,29.891174,-5.953308,,,,,,,
1532483317,1.651126,-0.215566,-1.957232,-0.860951,-0.247029,1.328295,0.973701,0.2139,0.078386,-0.098426,0.160749,0.019697,43.642944,28.693512,-5.796509,,,,,,,
1532483317,1.650147,-0.188265,-1.941185,-0.92094,-0.186322,1.286082,0.979235,0.187155,0.077867,-0.104097,0.223429,0.047194,44.288513,27.954224,-5.407959,,,,,,,
1532483317,1.650671,-0.162003,-1.924262,-0.952841,-0.093567,1.220004,0.983755,0.161295,0.078744,-0.111364,0.282186,0.060981,45.037476,26.78479,-5.044678,,,,,,,
1532483317,1.651984,-0.137712,-1.907046,-0.96124,-0.039818,1.092358,0.987265,0.137277,0.080331,-0.10868,0.32981,0.059577,45.771484,25.818115,-4.665222,,,,,,,
1532483317,1.653946,-0.116814,-1.889098,-1.000252,-0.019799,0.892696,0.989749,0.116548,0.082488,-0.120273,0.356078,0.045045,46.465942,24.967255,-4.229614,,,,,,,
1532483317,1.654012,-0.10044,-1.86936,-1.103038,-0.160149,0.635805,0.991512,0.100271,0.0827,-0.126278,0.355021,0.00696,46.636108,24.024658,-3.630676,,,,,,,
1532483317,1.651021,-0.089247,-1.845315,-1.354565,-0.357005,0.363398,0.992812,0.089128,0.07982,-0.122878,0.30023,-0.033708,46.848572,23.619568,-3.379211,,,,,,,
1532483317,1.642996,-0.082778,-1.813686,-1.800015,-0.645662,0.1033,0.993975,0.082684,0.07189,-0.111498,0.230869,-0.064703,47.103088,23.234863,-3.087158,,,,,,,
1532483317,1.626275,-0.080914,-1.770406,-2.418354,-1.26222,-0.118707,0.99519,0.080826,0.055268,-0.048931,0.16948,-0.122316,47.123657,23.287872,-3.016663,,,,,,,
1532483317,1.599087,-0.082779,-1.712975,-3.150707,-1.750589,-0.283387,0.996172,0.082684,0.02819,-0.087344,0.096454,-0.088432,47.025452,23.322571,-3.049072,,,,,,,
1532483317,1.566413,-0.089938,-1.643198,-3.649787,-2.049279,-0.46243,0.995944,0.089817,-0.004366,-0.076327,0.067272,0.032732,46.649719,23.838013,-3.007507,,,,,,,
1532483317,1.530113,-0.101352,-1.568753,-3.749399,-2.227965,-0.479879,0.994041,0.101178,-0.040463,-0.075691,0.038333,0.139172,46.634766,24.247742,-3.17572,,,,,,,
1532483317,1.495255,-0.113875,-1.496233,-3.587374,-2.031491,-0.38145,0.990686,0.113629,-0.074981,-0.096109,-0.008847,0.205749,46.473083,24.739899,-3.176025,,,,,,,
1532483317,1.468122,-0.126737,-1.428823,-3.292893,-1.628391,-0.317064,0.986752,0.126398,-0.101672,-0.103359,-0.017328,0.257357,46.000671,25.169373,-3.248596,,,,,,,
1532483317,1.448914,-0.139777,-1.367827,-2.99728,-1.223931,-0.315476,0.982897,0.139322,-0.120395,-0.096834,-0.001932,0.217807,45.640076,25.785614,-3.002563,,,,,,,
1532483317,1.437159,-0.153806,-1.311525,-2.806212,-0.889593,-0.358558,0.97938,0.153201,-0.131666,-0.087367,0.010297,0.157545,45.556885,26.003143,-2.7276,,,,,,,
1532483317,1.432974,-0.169448,-1.257977,-2.712206,-0.482864,-0.455054,0.976327,0.168638,-0.135419,-0.061609,0.03261,0.110455,45.419128,26.341827,-2.065857,,,,,,,
1532483317,1.434772,-0.186457,-1.207433,-2.513014,-0.248296,-0.530448,0.973586,0.185379,-0.133254,-0.062667,0.036484,0.07376,45.138672,26.704773,-1.303955,,,,,,,
1532483317,1.443827,-0.203256,-1.161362,-2.269249,0.132774,-0.545805,0.971527,0.20186,-0.124022,-0.040542,0.048812,0.055586,44.86145,27.161194,0.049622,,,,,,,
1532483317,1.457197,-0.22014,-1.121018,-1.959954,0.309138,-0.642035,0.969573,0.218366,-0.110619,-0.022979,0.072314,0.019829,44.722839,27.304291,1.086914,,,,,,,
1532483317,1.47293,-0.238063,-1.086154,-1.705635,0.416398,-0.756557,0.967143,0.235821,-0.094954,0.002111,0.096058,-0.049958,44.150146,27.626953,2.651978,,,,,,,
1532483318,1.488201,-0.257409,-1.055994,-1.462616,0.384439,-0.886872,0.963752,0.254576,-0.079783,0.04377,0.080736,-0.087164,43.88031,28.4487,3.70752,,,,,,,
1532483318,1.502703,-0.278449,-1.031069,-1.177476,0.425799,-0.994828,0.959251,0.274864,-0.06542,0.105004,0.057182,-0.079264,43.11377,28.879944,4.96814,,,,,,,
1532483318,1.518644,-0.299468,-1.0124,-0.832797,0.614486,-0.987126,0.95419,0.295012,-0.049808,0.198153,0.054857,-0.045651,42.636719,29.755859,6.021973,,,,,,,
1532483318,1.537644,-0.318296,-1.000862,-0.453901,0.877149,-0.873071,0.949244,0.312948,-0.031481,0.320974,0.076242,-0.024229,42.106201,30.237946,7.130371,,,,,,,
1532483318,1.558716,-0.334198,-0.996992,-0.056968,1.030285,-0.749686,0.944601,0.328012,-0.011411,0.410456,0.119773,-0.031206,41.342407,30.841492,7.945923,,,,,,,
1532483318,1.577079,-0.348201,-1.000586,0.281695,0.935913,-0.689201,0.939966,0.341207,0.005906,0.458808,0.118296,-0.094544,40.390747,31.408691,8.775269,,,,,,,
1532483318,1.589426,-0.36148,-1.010106,0.548403,0.679907,-0.645623,0.935208,0.353659,0.017425,0.376163,-0.0035,-0.123504,40.021973,32.012817,9.316162,,,,,,,
1532483318,1.594718,-0.373722,-1.024119,0.714319,0.427811,-0.563226,0.930704,0.365083,0.022268,0.223989,-0.139955,-0.097631,39.387268,32.634918,9.511475,,,,,,,
1532483318,1.594196,-0.383376,-1.039815,0.728491,0.181432,-0.391732,0.927149,0.374053,0.021699,0.112935,-0.221237,-0.037096,38.94574,33.305023,9.335144,,,,,,,
1532483318,1.590355,-0.389326,-1.053876,0.607537,0.006117,-0.229564,0.924984,0.379565,0.018094,0.026646,-0.272128,0.041507,38.78009,33.926056,8.967834,,,,,,,
1532483318,1.585165,-0.392347,-1.064977,0.460258,-0.071329,-0.088635,0.923914,0.382358,0.013276,-0.008631,-0.270176,0.114394,38.491333,34.037201,8.670654,,,,,,,
1532483318,1.582403,-0.392051,-1.073164,0.314285,0.096662,0.085493,0.924061,0.382084,0.010726,-0.030888,-0.260456,0.162248,38.598877,34.468201,8.299561,,,,,,,
1532483318,1.586585,-0.388263,-1.076913,0.058449,0.394163,0.263783,0.925449,0.378582,0.014613,-0.052707,-0.227565,0.180974,38.661499,34.035736,8.125916,,,,,,,
1532483318,1.599183,-0.380645,-1.073317,-0.326417,0.612718,0.456584,0.928047,0.371519,0.026351,-0.02729,-0.155912,0.145051,38.788696,33.954834,8.410278,,,,,,,
1532483318,1.615959,-0.368226,-1.060854,-0.802143,0.59815,0.680787,0.932012,0.359961,0.042121,0.008464,-0.078695,0.062264,38.951172,33.488617,9.040649,,,,,,,
,,,,,,,,,,,,,,,,42.47388,-83.404937,222.84305,0.410293,-1,1532483318,
1532483318,1.633246,-0.35182,-1.037022,-1.392379,0.284206,0.774883,0.936913,0.344607,0.058586,0.084419,0.045316,-0.048134,39.18512,32.91391,9.912415,,,,,,,
1532483318,1.645453,-0.333656,-1.000396,-2.036407,-0.186799,0.789571,0.942215,0.3275,0.070474,0.105194,0.121414,-0.128137,39.332458,31.694794,11.094482,,,,,,,
1532483318,1.65223,-0.314901,-0.95166,-2.599327,-0.570147,0.730436,0.947672,0.309723,0.077343,0.076681,0.148941,-0.143353,40.124878,30.509277,12.004944,,,,,,,
1532483318,1.6549,-0.296557,-0.89385,-2.96429,-0.824533,0.669894,0.952964,0.29223,0.080337,0.024987,0.143302,-0.106338,40.516663,28.972992,12.957153,,,,,,,
1532483318,1.654007,-0.278663,-0.831953,-3.070099,-0.98191,0.640736,0.958093,0.275071,0.079908,-0.054819,0.131515,-0.072508,41.067566,27.960297,14.180481,,,,,,,
1532483318,1.650766,-0.261576,-0.771515,-2.915923,-0.953796,0.592311,0.962892,0.258603,0.077167,-0.138872,0.125384,-0.016819,41.777344,26.163269,14.925232,,,,,,,
1532483318,1.646389,-0.246694,-0.717384,-2.522544,-0.865568,0.50235,0.966952,0.244199,0.073234,-0.211657,0.132266,0.020302,42.30127,24.854248,15.454224,,,,,,,
1532483318,1.642943,-0.235202,-0.673443,-1.975067,-0.591866,0.360494,0.969933,0.23304,0.070099,-0.262917,0.148216,0.061493,43.040344,23.684906,15.829041,,,,,,,
1532483318,1.642572,-0.227932,-0.640922,-1.411106,-0.279719,0.188225,0.971624,0.225964,0.069859,-0.275502,0.164203,0.087459,43.543579,22.319397,16.334534,,,,,,,
1532483318,1.645798,-0.224052,-0.61857,-0.944088,0.020288,0.078182,0.97226,0.222182,0.073058,-0.261994,0.157426,0.107468,43.438232,21.503662,16.672668,,,,,,,
1532483318,1.65208,-0.222528,-0.604013,-0.606856,0.224412,-0.033419,0.972118,0.220696,0.079191,-0.238903,0.133506,0.08333,43.743042,21.299866,17.189026,,,,,,,
1532483318,1.660459,-0.22487,-0.593902,-0.426374,0.356475,-0.246997,0.970903,0.222979,0.087288,-0.20685,0.150586,0.076683,43.644409,21.175751,17.750183,,,,,,,
1532483318,1.670363,-0.232398,-0.585703,-0.351306,0.434415,-0.516893,0.968293,0.230312,0.096729,-0.184938,0.146626,0.057293,43.674255,21.487366,18.121277,,,,,,,
1532483318,1.679219,-0.244799,-0.577123,-0.366368,0.248308,-0.735297,0.964485,0.242362,0.104983,-0.138084,0.130685,0.023053,43.017212,21.587097,18.672119,,,,,,,
1532483318,1.68383,-0.260496,-0.566354,-0.481257,-0.006228,-0.905648,0.960092,0.25756,0.108987,-0.107293,0.105309,-0.007943,42.634277,21.893127,18.957306,,,,,,,
1532483318,1.684487,-0.278845,-0.552227,-0.643575,-0.225896,-1.045726,0.955163,0.275246,0.109064,-0.099282,0.040596,-0.006647,42.043579,22.253204,19.297852,,,,,,,
1532483318,1.684097,-0.29896,-0.533241,-0.889854,-0.37575,-1.138923,0.949512,0.294526,0.108043,-0.085086,-0.010698,0.010686,41.735291,22.955872,19.295074,,,,,,,
1532483318,1.681744,-0.320477,-0.508698,-1.137897,-0.564857,-1.250449,0.943246,0.315019,0.105082,-0.054223,-0.022768,0.004445,41.235168,23.601532,19.385712,,,,,,,
1532483318,1.678289,-0.343862,-0.479679,-1.292353,-0.70493,-1.358053,0.936022,0.337125,0.101005,-0.027864,-0.035672,0.035988,40.988098,24.11264,19.543701,,,,,,,
1532483318,1.673296,-0.368999,-0.449583,-1.254888,-0.787487,-1.423868,0.927789,0.360682,0.095432,0.002539,-0.061411,0.063228,40.906738,24.858734,19.672546,,,,,,,
1532483318,1.668545,-0.395174,-0.421646,-1.105486,-0.7425,-1.444602,0.91852,0.384969,0.090071,0.028257,-0.099401,0.102633,40.317566,25.231537,19.831696,,,,,,,
1532483318,1.66436,-0.421528,-0.39694,-0.94949,-0.683905,-1.418307,0.90847,0.409155,0.085249,0.07383,-0.126226,0.117495,39.948303,25.728241,19.880463,,,,,,,
1532483318,1.661019,-0.447799,-0.374945,-0.849721,-0.585996,-1.40552,0.897732,0.432983,0.081216,0.102878,-0.142562,0.1314,39.466736,26.52594,19.701721,,,,,,,
1532483318,1.659408,-0.474583,-0.353881,-0.818363,-0.557108,-1.433607,0.88599,0.456968,0.078715,0.160626,-0.148267,0.131658,38.968628,27.171692,19.548157,,,,,,,
1532483318,1.657943,-0.500819,-0.332161,-0.870443,-0.586159,-1.378178,0.873857,0.480144,0.076347,0.177763,-0.172313,0.106987,38.437683,27.889435,19.673706,,,,,,,
1532483318,1.657385,-0.525897,-0.308783,-0.938558,-0.626945,-1.318813,0.86163,0.501989,0.074794,0.202441,-0.190221,0.097752,37.735962,28.750244,19.708191,,,,,,,
1532483318,1.657082,-0.548602,-0.283523,-1.015694,-0.688365,-1.171322,0.850076,0.521495,0.073532,0.224951,-0.198222,0.088531,37.33429,28.810852,19.856018,,,,,,,
1532483318,1.656646,-0.567921,-0.256681,-1.079396,-0.76901,-1.00028,0.839913,0.53788,0.072284,0.246955,-0.211159,0.096112,37.240479,29.558838,19.984528,,,,,,,
1532483318,1.655748,-0.583823,-0.228081,-1.172663,-0.857083,-0.84254,0.831349,0.551218,0.070795,0.302806,-0.18258,0.099386,37.057251,29.925812,19.898621,,,,,,,
1532483318,1.655409,-0.597083,-0.196577,-1.296853,-0.923665,-0.742703,0.824017,0.562232,0.069889,0.406573,-0.089607,0.098522,36.911621,29.786285,20.09613,,,,,,,
1532483318,1.6549,-0.609156,-0.163597,-1.293067,-0.987589,-0.713148,0.817229,0.572175,0.068894,0.485551,-0.030595,0.128936,36.731323,29.751465,20.188354,,,,,,,
1532483318,1.652243,-0.621425,-0.132846,-1.139687,-1.046884,-0.713044,0.810351,0.582195,0.066147,0.524244,-0.050807,0.158783,36.7547,29.534088,20.208466,,,,,,,
1532483318,1.647139,-0.632583,-0.106306,-0.973748,-1.022769,-0.586666,0.804151,0.59123,0.06151,0.415134,-0.204496,0.165846,36.787537,29.677521,20.196899,,,,,,,
1532483318,1.64216,-0.639387,-0.082965,-0.886739,-0.891178,-0.281098,0.800416,0.596703,0.057218,0.2303,-0.427285,0.147921,37.058716,29.644012,20.034821,,,,,,,
1532483318,1.638677,-0.638318,-0.06237,-0.792949,-0.720968,0.178107,0.801246,0.595846,0.054473,0.069939,-0.571859,0.12822,37.341309,29.166962,19.855194,,,,,,,
1532483318,1.636744,-0.627875,-0.045578,-0.656722,-0.525208,0.644531,0.807515,0.587427,0.053331,0.014201,-0.547693,0.118773,37.632141,28.837891,19.829987,,,,,,,
1532483319,1.634578,-0.610629,-0.033464,-0.475318,-0.441143,0.91415,0.817618,0.573383,0.05222,0.025094,-0.419483,0.111599,38.222168,28.168823,19.950745,,,,,,,
1532483319,1.631382,-0.59092,-0.02642,-0.274375,-0.288051,0.982124,0.828902,0.557125,0.050281,0.04973,-0.300594,0.10693,39.013367,27.526611,19.66333,,,,,,,
1532483319,1.630142,-0.571259,-0.024265,-0.075658,-0.006039,0.990016,0.839737,0.540691,0.049894,0.076965,-0.228023,0.095263,39.72876,26.373566,19.604126,,,,,,,
1532483319,1.63199,-0.551026,-0.026024,0.057734,0.243874,1.020094,0.85039,0.523562,0.052104,0.138181,-0.190951,0.055669,39.878174,25.452728,19.689056,,,,,,,
1532483319,1.636545,-0.531798,-0.030024,0.131234,0.374013,0.952749,0.860032,0.507084,0.056627,0.170471,-0.144596,0.0166,40.242249,24.635864,19.786652,,,,,,,
1532483319,1.641658,-0.512899,-0.034325,0.107337,0.373852,0.978974,0.869136,0.490706,0.061691,0.146855,-0.141096,-0.059265,40.317078,23.727081,20.121246,,,,,,,
1532483319,1.647939,-0.492274,-0.037335,0.028769,0.381736,1.084197,0.878636,0.472631,0.067915,0.086482,-0.171835,-0.077361,40.675293,23.072052,20.33316,,,,,,,
1532483319,1.654338,-0.469492,-0.038736,-0.064581,0.348154,1.184709,0.888685,0.452433,0.074416,0.040911,-0.165873,-0.108397,41.255615,22.59903,20.399139,,,,,,,
1532483319,1.660246,-0.444782,-0.039141,-0.089467,0.279675,1.269139,0.899093,0.430261,0.080639,-0.000579,-0.150811,-0.107326,41.447693,21.549469,20.798187,,,,,,,
1532483319,1.664929,-0.418712,-0.040131,-0.065883,0.259268,1.320536,0.909566,0.406584,0.085873,-0.02509,-0.135481,-0.105984,42.037415,20.860321,21.061066,,,,,,,
1532483319,1.669789,-0.39273,-0.041936,-0.02159,0.29779,1.283128,0.919342,0.382712,0.091306,-0.044922,-0.085776,-0.100095,42.352722,19.273163,21.324066,,,,,,,
1532483319,1.675264,-0.368332,-0.045255,0.063846,0.374836,1.20613,0.927841,0.36006,0.097284,-0.06874,-0.037413,-0.089639,42.661194,18.095856,21.5242,,,,,,,
1532483319,1.680849,-0.34544,-0.050715,0.171297,0.386959,1.151529,0.935232,0.338611,0.103343,-0.075536,-0.004107,-0.09051,42.946289,17.434143,21.717346,,,,,,,
1532483319,1.68701,-0.323997,-0.058078,0.256687,0.469311,1.076686,0.941574,0.318358,0.109919,-0.09111,0.024599,-0.085093,43.298706,16.876007,21.77301,,,,,,,
,,,,,,,,,,,,,,,,42.473864,-83.404933,251.630522,0.062665,-1,1532483319,
1532483319,1.694274,-0.304817,-0.066868,0.329942,0.5114,0.968432,0.946637,0.300118,0.117487,-0.085172,0.082725,-0.069406,43.126953,15.841736,22.362488,,,,,,,
1532483319,1.701609,-0.287614,-0.077199,0.417552,0.503389,0.893171,0.950728,0.283665,0.125082,-0.079283,0.114773,-0.060186,43.31958,15.283142,22.573029,,,,,,,
1532483319,1.706706,-0.272698,-0.089733,0.556177,0.373421,0.770223,0.954165,0.269331,0.130485,-0.068331,0.130602,-0.059409,43.220276,14.640381,22.720245,,,,,,,
1532483319,1.709008,-0.261269,-0.104768,0.684779,0.294644,0.610099,0.956848,0.258307,0.133096,-0.084473,0.124246,-0.053353,43.280884,14.619202,22.93161,,,,,,,
1532483319,1.710738,-0.252882,-0.120716,0.710625,0.283621,0.476305,0.958728,0.250196,0.135049,-0.063007,0.142672,-0.045739,43.324097,14.464417,22.985291,,,,,,,
1532483319,1.711845,-0.246864,-0.135925,0.67544,0.189467,0.365576,0.960052,0.244364,0.13632,-0.015929,0.186453,-0.0287,43.151306,14.535614,23.044067,,,,,,,
1532483319,1.709744,-0.242248,-0.15015,0.628779,0.002564,0.305302,0.961443,0.239885,0.134457,0.035734,0.190199,-0.025784,43.236877,14.166107,22.960083,,,,,,,
1532483319,1.705387,-0.238726,-0.162131,0.49908,-0.097268,0.239836,0.962851,0.236465,0.130379,0.097528,0.220063,-0.025521,43.297729,14.374207,22.787933,,,,,,,
1532483319,1.700433,-0.235435,-0.169935,0.260053,-0.208099,0.215102,0.964252,0.233266,0.125707,0.121289,0.276957,-0.037527,43.571411,14.230927,22.45047,,,,,,,
1532483319,1.692807,-0.232301,-0.173674,0.120642,-0.424956,0.16273,0.965903,0.230217,0.118438,0.228662,0.371651,-0.027893,43.823853,14.082184,22.176575,,,,,,,
1532483319,1.683367,-0.230278,-0.174433,-0.068021,-0.441761,0.056245,0.967439,0.228248,0.109368,0.350692,0.448189,-0.022683,43.959656,14.308105,21.759247,,,,,,,
1532483319,1.674958,-0.230939,-0.167524,-0.522702,-0.578543,-0.172362,0.968174,0.228892,0.101213,0.3811,0.457937,-0.06061,44.116394,14.487976,21.39093,,,,,,,
1532483319,1.664005,-0.236972,-0.149584,-1.017954,-0.857364,-0.505639,0.967832,0.23476,0.090472,0.229037,0.347622,-0.09476,44.259949,14.158508,21.06601,,,,,,,
1532483319,1.65015,-0.247734,-0.124394,-1.229387,-1.088565,-0.696632,0.966418,0.245208,0.07685,0.001676,0.144746,-0.032569,44.854431,14.079895,20.434937,,,,,,,
1532483319,1.632989,-0.259768,-0.099522,-1.090456,-1.18739,-0.660762,0.96458,0.256857,0.060068,-0.234019,-0.072424,0.089316,44.872498,14.380432,20.088776,,,,,,,
1532483319,1.617144,-0.26977,-0.081145,-0.708678,-0.927215,-0.470006,0.962796,0.26651,0.044656,-0.285321,-0.111099,0.230933,45.0354,14.344208,19.439911,,,,,,,
1532483319,1.604188,-0.276134,-0.071635,-0.306904,-0.689398,-0.26519,0.961579,0.272638,0.03212,-0.263871,-0.025644,0.298034,45.524536,14.243317,18.843262,,,,,,,
1532483319,1.595367,-0.278897,-0.068306,-0.088244,-0.348714,-0.067139,0.961069,0.275295,0.023619,-0.208841,0.030369,0.32091,45.756104,14.427399,18.452972,,,,,,,
1532483319,1.593991,-0.278166,-0.06684,-0.095673,0.059857,0.088125,0.961301,0.274593,0.022301,-0.132565,0.105992,0.302619,46.081909,14.795898,17.890137,,,,,,,
1532483319,1.600233,-0.275466,-0.061682,-0.38421,0.32817,0.132628,0.961881,0.271996,0.028323,-0.054425,0.186012,0.222898,45.747864,14.341797,18.182556,,,,,,,
1532483319,1.611054,-0.27277,-0.04783,-0.852185,0.320128,0.103567,0.962247,0.2694,0.038759,-0.018979,0.25541,0.120162,45.78894,14.005798,18.754425,,,,,,,
1532483319,1.621003,-0.269816,-0.024991,-1.25637,0.122871,0.089516,0.962604,0.266555,0.04837,-0.046695,0.246217,0.022736,45.538879,13.610016,19.078888,,,,,,,
1532483319,1.628385,-0.267774,0.0044,-1.50309,-0.111895,-0.03393,0.962763,0.264585,0.055506,-0.083643,0.206774,-0.004801,45.387878,12.727081,19.538452,,,,,,,
1532483319,1.631978,-0.268598,0.035992,-1.507888,-0.310064,-0.171301,0.962339,0.26538,0.058951,-0.133085,0.176515,0.000283,45.567017,12.372711,19.694977,,,,,,,
1532483319,1.632581,-0.270896,0.065444,-1.350316,-0.370154,-0.226502,0.961692,0.267595,0.059494,-0.196891,0.114073,0.029923,45.803345,11.81601,19.854553,,,,,,,
1532483319,1.632463,-0.274985,0.091058,-1.152741,-0.336444,-0.319969,0.960599,0.271533,0.059312,-0.221555,0.082548,0.045638,45.929871,11.518616,19.818665,,,,,,,
1532483319,1.632962,-0.281817,0.113297,-0.982879,-0.258903,-0.473302,0.958696,0.278101,0.059675,-0.222245,0.086492,0.050646,45.893982,11.226196,19.781799,,,,,,,
1532483319,1.633868,-0.292758,0.131365,-0.740878,-0.175722,-0.671203,0.955547,0.288594,0.060348,-0.192425,0.093975,0.05417,45.845398,11.363434,19.703949,,,,,,,
1532483319,1.634579,-0.30768,0.143445,-0.400338,-0.094642,-0.841933,0.9511,0.302848,0.060746,-0.156529,0.06678,0.054031,45.826172,11.811188,19.679993,,,,,,,
1532483319,1.636265,-0.326001,0.148244,-0.034693,0.079945,-0.992612,0.945301,0.320257,0.061976,-0.116718,0.028284,0.079809,45.318726,12.244507,19.889038,,,,,,,
1532483319,1.639587,-0.347813,0.146744,0.232869,0.256467,-1.136382,0.937897,0.340842,0.06462,-0.076828,-0.007117,0.09549,45.193237,13.114258,20.046661,,,,,,,
1532483319,1.642581,-0.372206,0.141064,0.399945,0.281724,-1.250626,0.929128,0.363671,0.066812,-0.0156,-0.050027,0.081,44.46283,13.948883,20.04483,,,,,,,
1532483319,1.645483,-0.398922,0.133988,0.444265,0.267359,-1.345799,0.918911,0.388425,0.068759,0.039204,-0.082426,0.077421,44.158508,15.440399,20.345673,,,,,,,
1532483319,1.646016,-0.426255,0.12599,0.486633,0.114235,-1.325638,0.907946,0.413464,0.068424,0.13722,-0.109677,0.077297,43.751038,16.939056,20.248383,,,,,,,
1532483319,1.642615,-0.452309,0.118061,0.425804,-0.047815,-1.250791,0.897121,0.437043,0.064541,0.177219,-0.155625,0.074116,43.189697,18.131653,20.260956,,,,,,,
1532483319,1.637936,-0.47706,0.112445,0.277155,-0.147114,-1.210086,0.886347,0.459169,0.059599,0.218878,-0.191744,0.086626,42.761658,19.591003,19.987488,,,,,,,
1532483320,1.633118,-0.499924,0.110782,0.075844,-0.229894,-1.083918,0.875915,0.479359,0.054659,0.237092,-0.240681,0.104124,42.451172,20.390015,20.003937,,,,,,,
1532483320,1.629694,-0.519935,0.113216,-0.106117,-0.234963,-0.971948,0.866347,0.496823,0.051085,0.265871,-0.250104,0.129091,41.851868,21.495544,19.79538,,,,,,,
1532483320,1.628137,-0.53811,0.118795,-0.224555,-0.21316,-0.900322,0.857267,0.512514,0.049211,0.378801,-0.166323,0.126632,41.650269,22.135803,19.716248,,,,,,,
1532483320,1.625998,-0.555211,0.125353,-0.218655,-0.357905,-0.865813,0.848495,0.527123,0.046886,0.540223,-0.024361,0.11855,41.213135,22.692535,19.608185,,,,,,,
1532483320,1.618471,-0.572184,0.130093,-0.109005,-0.598069,-0.852433,0.839765,0.54147,0.040066,0.613955,0.012394,0.161762,41.109192,23.044006,19.334869,,,,,,,
1532483320,1.605826,-0.587444,0.131846,-0.013872,-0.697556,-0.690577,0.831849,0.554236,0.029151,0.498412,-0.14884,0.208047,40.886902,24.022186,18.834351,,,,,,,
1532483320,1.593074,-0.597006,0.132659,-0.028858,-0.632283,-0.33485,0.826817,0.562169,0.018423,0.275508,-0.414693,0.219721,41.053711,24.515869,18.263153,,,,,,,
1532483320,1.583616,-0.597919,0.134378,-0.099343,-0.440079,0.139856,0.826441,0.562924,0.010595,0.083914,-0.561307,0.214426,41.052612,24.686279,17.766541,,,,,,,
1532483320,1.579251,-0.588716,0.137429,-0.134206,-0.237334,0.646084,0.831625,0.555294,0.007031,0.008372,-0.507534,0.178257,41.297668,24.470673,17.770081,,,,,,,
1532483320,1.577497,-0.571174,0.139076,-0.022488,-0.052757,0.995983,0.841248,0.54062,0.005637,-0.006715,-0.397736,0.164208,41.539978,23.80304,17.486877,,,,,,,
1532483320,1.579899,-0.549116,0.136919,0.159398,0.325217,1.164865,0.852951,0.521933,0.007764,-0.002808,-0.302985,0.16109,41.781616,22.815002,17.483154,,,,,,,
1532483320,1.587064,-0.524479,0.130288,0.329437,0.63961,1.285316,0.86547,0.500763,0.01408,0.030099,-0.219711,0.115955,42.390869,22.046387,17.567078,,,,,,,
1532483320,1.597335,-0.498343,0.120566,0.432703,0.808573,1.33685,0.878066,0.477971,0.023308,0.086793,-0.129933,0.037666,42.462219,21.279602,18.01709,,,,,,,
1532483320,1.608711,-0.472397,0.108802,0.514399,0.837615,1.292558,0.88984,0.455022,0.033754,0.124717,-0.064321,-0.015627,42.942444,20.513489,18.482117,,,,,,,
,,,,,,,,,,,,,,,,42.473848,-83.404937,241.67826,0.08263,-1,1532483320,
1532483320,1.617687,-0.449038,0.095655,0.544879,0.677824,1.145314,0.899875,0.434099,0.042226,0.132779,-0.021746,-0.074041,43.072571,19.815521,19.040253,,,,,,,
1532483320,1.624213,-0.428224,0.083987,0.417909,0.518599,1.04978,0.908407,0.415256,0.048571,0.079325,-0.031284,-0.108797,42.906006,18.900299,19.365448,,,,,,,
1532483320,1.629231,-0.40685,0.076685,0.186871,0.327609,1.117414,0.916805,0.395718,0.053634,0.038426,-0.087964,-0.125869,43.07666,18.014679,19.389374,,,,,,,
1532483320,1.633586,-0.384331,0.074421,-0.059692,0.249436,1.154479,0.925222,0.374939,0.058171,-0.015295,-0.078736,-0.13065,43.227783,17.391449,19.760193,,,,,,,
1532483320,1.639898,-0.361225,0.076708,-0.239604,0.269362,1.15161,0.933232,0.35342,0.064591,-0.05692,-0.035763,-0.094574,43.683899,16.507263,19.910461,,,,,,,
1532483320,1.648335,-0.33696,0.081182,-0.329895,0.42504,1.249929,0.940928,0.33062,0.073105,-0.050151,0.007667,-0.076492,43.812378,15.36319,20.238739,,,,,,,
1532483320,1.659569,-0.308356,0.084743,-0.230207,0.535357,1.561988,0.949081,0.303493,0.084475,-0.060471,-0.007152,-0.042834,43.867981,14.144318,20.688019,,,,,,,
1532483320,1.673821,-0.271817,0.084204,-0.105228,0.818698,1.939222,0.958177,0.268482,0.099066,-0.037309,-0.05637,-0.050971,44.085815,12.643738,21.335297,,,,,,,
1532483320,1.690153,-0.23266,0.079565,0.070059,0.88161,1.958404,0.966133,0.230567,0.115865,0.03344,0.029427,-0.053411,44.095276,10.928986,21.896088,,,,,,,
1532483320,1.706611,-0.198045,0.072464,0.126884,0.924672,1.639051,0.971423,0.196753,0.132751,-0.003635,0.195795,-0.079468,43.888062,9.456238,22.697998,,,,,,,
1532483320,1.722929,-0.169205,0.065248,0.161851,0.83541,1.416635,0.974333,0.168399,0.149383,-0.00897,0.23042,-0.094436,43.717468,8.256439,23.300629,,,,,,,
1532483320,1.736726,-0.142807,0.056672,0.22567,0.721986,1.367072,0.976225,0.142323,0.163488,-0.047071,0.201138,-0.087484,43.6875,7.331604,23.890472,,,,,,,
1532483320,1.748624,-0.116705,0.048109,0.14187,0.601771,1.355501,0.977534,0.11644,0.175689,-0.030971,0.234741,-0.089141,43.354553,6.482056,24.425812,,,,,,,
1532483320,1.758072,-0.091601,0.043378,-0.094131,0.42553,1.225073,0.978395,0.091473,0.185402,0.002241,0.329624,-0.103447,43.304382,5.302216,24.784607,,,,,,,
1532483320,1.765172,-0.069634,0.044341,-0.350316,0.284922,0.972038,0.97879,0.069577,0.192686,0.007828,0.414416,-0.104292,43.445862,4.241913,24.923981,,,,,,,
1532483320,1.769667,-0.052232,0.049649,-0.472392,0.195556,0.719344,0.978953,0.052208,0.197292,-0.02183,0.427268,-0.097241,43.058777,3.228424,25.152954,,,,,,,
1532483320,1.774819,-0.038392,0.055844,-0.402497,0.258081,0.560026,0.978537,0.038383,0.202461,-0.0353,0.412499,-0.06887,43.134277,2.403809,25.445923,,,,,,,
1532483320,1.781392,-0.02853,0.059278,-0.208808,0.388934,0.381799,0.977508,0.028526,0.208957,0.054719,0.499977,-0.066059,43.078613,1.923157,25.632812,,,,,,,
1532483320,1.788753,-0.023507,0.060381,-0.047711,0.29362,0.132684,0.976071,0.023505,0.216175,0.156818,0.612451,-0.068958,42.767395,1.392975,25.978516,,,,,,,
1532483320,1.788321,-0.026276,0.058956,0.162066,-0.204678,-0.315707,0.976096,0.026273,0.215739,0.24128,0.605502,-0.148646,42.933838,1.488312,25.939209,,,,,,,
1532483320,1.781773,-0.040681,0.059238,0.103716,-0.406884,-0.967219,0.977017,0.04067,0.209241,0.129169,0.501811,-0.17912,43.19281,1.703583,25.671173,,,,,,,
1532483320,1.771874,-0.066937,0.06354,0.018649,-0.565049,-1.497563,0.977657,0.066887,0.199278,-0.114223,0.243599,-0.113722,43.267822,3.261597,25.454163,,,,,,,
1532483320,1.760379,-0.096571,0.070238,-0.087007,-0.636528,-1.4805,0.977507,0.096421,0.187571,-0.217176,0.036529,-0.102442,43.565735,4.491425,24.830475,,,,,,,
1532483320,1.746328,-0.121405,0.077193,-0.124551,-0.798633,-1.161427,0.977386,0.121107,0.173346,-0.261001,-0.018019,-0.055212,43.77417,5.503082,24.347534,,,,,,,
1532483320,1.728801,-0.140427,0.081631,-0.011098,-0.966653,-0.889938,0.977821,0.139966,0.155799,-0.20385,0.040591,0.045205,43.937744,6.022247,23.647583,,,,,,,
1532483320,1.708359,-0.156445,0.08303,0.054095,-1.037229,-0.781671,0.978455,0.155808,0.135455,-0.159897,0.110488,0.064115,44.404175,6.724762,22.757446,,,,,,,
1532483320,1.691791,-0.172336,0.085562,-0.09555,-0.715123,-0.825114,0.977984,0.171485,0.118911,-0.102373,0.156579,0.060837,44.734009,7.648438,21.953674,,,,,,,
1532483320,1.68389,-0.18787,0.092927,-0.398923,-0.304315,-0.791853,0.976128,0.186766,0.110867,-0.071709,0.14409,0.039249,44.960266,8.107086,21.472687,,,,,,,
1532483320,1.685284,-0.200096,0.107092,-0.753813,0.032368,-0.613936,0.973631,0.198763,0.111958,-0.032438,0.131651,-0.010243,45.239258,8.581146,21.301727,,,,,,,
1532483320,1.690097,-0.207338,0.127173,-1.04731,-0.013776,-0.396467,0.971626,0.205855,0.116469,-0.012337,0.158555,-0.104368,44.993347,8.764099,21.450256,,,,,,,
1532483320,1.691943,-0.209858,0.152269,-1.302701,-0.276576,-0.214597,0.970892,0.208321,0.118199,-0.06101,0.174293,-0.186177,44.950684,8.572144,21.42868,,,,,,,
1532483320,1.688169,-0.210204,0.18077,-1.426338,-0.616032,-0.190659,0.971259,0.208659,0.114526,-0.107154,0.181035,-0.193352,45.069824,8.097443,21.459808,,,,,,,
1532483320,1.678209,-0.212764,0.210462,-1.434271,-0.920254,-0.385049,0.971818,0.211163,0.104789,-0.167542,0.183323,-0.164115,45.186951,7.538757,21.072968,,,,,,,
1532483320,1.664446,-0.222217,0.24058,-1.420789,-1.051301,-0.772011,0.971137,0.220393,0.091214,-0.194632,0.185857,-0.11166,45.634033,7.548584,20.453217,,,,,,,
1532483320,1.650483,-0.23963,0.270903,-1.392122,-1.036838,-1.122851,0.968343,0.237344,0.077328,-0.180257,0.166907,-0.035748,46.023315,7.397491,19.95755,,,,,,,
1532483320,1.637772,-0.262881,0.299639,-1.236121,-0.964362,-1.333938,0.96348,0.259864,0.064627,-0.11529,0.123635,0.042642,46.101807,7.930023,19.166077,,,,,,,
1532483321,1.627826,-0.290118,0.322442,-0.855173,-0.709893,-1.510584,0.956652,0.286065,0.054617,-0.048586,0.060935,0.119943,46.461426,8.686798,18.544769,,,,,,,
1532483321,1.619699,-0.321722,0.334492,-0.298968,-0.399964,-1.665956,0.947558,0.316201,0.046375,0.013761,-0.008156,0.142697,46.283936,9.659332,18.130341,,,,,,,
1532483321,1.619318,-0.35533,0.337235,0.095201,0.088818,-1.701715,0.936428,0.3479,0.045472,0.025715,-0.12419,0.198455,46.109009,11.262207,17.847717,,,,,,,
1532483321,1.620571,-0.387852,0.333773,0.291681,0.094817,-1.555758,0.924577,0.378201,0.046058,0.107298,-0.219189,0.156578,45.650452,12.945679,18.019836,,,,,,,
1532483321,1.617787,-0.417486,0.330211,0.170569,-0.198303,-1.437842,0.913102,0.405464,0.042939,0.162505,-0.268974,0.074477,45.384155,14.467712,17.851379,,,,,,,
1532483321,1.609917,-0.444196,0.331807,-0.139701,-0.551451,-1.278628,0.902266,0.429732,0.035315,0.22574,-0.307066,0.035364,44.9646,15.70108,17.621094,,,,,,,
1532483321,1.599958,-0.466626,0.340248,-0.442751,-0.760301,-1.054681,0.892711,0.449876,0.02604,0.234684,-0.366181,0.063422,45.053894,16.552063,17.114319,,,,,,,
1532483321,1.591934,-0.484454,0.35382,-0.655875,-0.663966,-0.813874,0.884731,0.465726,0.018704,0.257114,-0.358044,0.117328,44.939148,17.40979,16.707825,,,,,,,
1532483321,1.587434,-0.497675,0.370559,-0.772775,-0.568437,-0.594908,0.878573,0.477384,0.014619,0.337155,-0.278027,0.118484,44.753967,17.37146,16.420654,,,,,,,
1532483321,1.586725,-0.507421,0.389214,-0.820005,-0.481969,-0.460022,0.87389,0.485925,0.013921,0.404217,-0.203836,0.107081,44.616455,17.68222,16.378052,,,,,,,
1532483321,1.588113,-0.515422,0.409029,-0.891637,-0.389922,-0.3894,0.869954,0.492902,0.015067,0.550486,-0.062878,0.052331,44.958191,17.700928,16.099304,,,,,,,
1532483321,1.586726,-0.521873,0.428471,-0.816251,-0.609203,-0.307268,0.866777,0.498505,0.013808,0.532286,-0.048035,0.036744,44.963013,17.6716,15.900085,,,,,,,
1532483321,1.583761,-0.52682,0.446411,-0.746058,-0.634914,-0.24235,0.864338,0.502787,0.011207,0.436672,-0.110941,0.045144,45.178162,17.761841,15.770691,,,,,,,
1532483321,1.578113,-0.530077,0.461825,-0.608974,-0.689562,-0.106196,0.862745,0.5056,0.006312,0.227526,-0.21727,0.056981,45.417969,17.922913,15.540405,,,,,,,
1532483321,1.570696,-0.529268,0.472558,-0.370624,-0.59783,0.134586,0.863177,0.504902,-0.000087,0.023313,-0.355945,0.095424,45.805908,17.815063,15.030518,,,,,,,
1532483321,1.565424,-0.523271,0.477519,-0.125543,-0.24999,0.402322,0.866176,0.499717,-0.004653,-0.033779,-0.358512,0.104323,46.205566,17.515961,14.641479,,,,,,,
1532483321,1.56333,-0.512516,0.476743,0.140941,-0.003898,0.610271,0.871489,0.490371,-0.006507,-0.025893,-0.270111,0.099983,46.475281,17.232239,14.607117,,,,,,,
1532483321,1.563214,-0.498975,0.469809,0.407286,0.286314,0.705569,0.878048,0.478526,-0.006658,0.018238,-0.202449,0.100438,46.880493,16.490082,14.358582,,,,,,,
1532483321,1.568005,-0.48452,0.458104,0.567526,0.663939,0.716501,0.884895,0.465784,-0.00247,0.090737,-0.146676,0.076704,46.920044,15.839722,14.806091,,,,,,,
1532483321,1.577421,-0.469705,0.445695,0.517112,0.788965,0.789769,0.891682,0.452623,0.005907,0.164989,-0.081316,-0.027162,46.662231,15.495148,15.236633,,,,,,,
1532483321,1.588957,-0.452154,0.436847,0.301218,0.741062,0.95527,0.899359,0.436904,0.016335,0.211892,-0.05017,-0.116417,46.732605,14.739227,15.813965,,,,,,,
1532483321,1.598845,-0.430237,0.433003,0.062741,0.470534,1.203398,0.908509,0.417087,0.025489,0.218902,-0.034961,-0.178886,46.775757,13.720276,16.155029,,,,,,,
1532483321,1.604859,-0.403889,0.433616,-0.145545,0.189796,1.372113,0.919006,0.392997,0.031316,0.15274,-0.031867,-0.205251,46.893677,12.595795,16.66748,,,,,,,
1532483321,1.607799,-0.376554,0.438105,-0.304681,0.00041,1.349367,0.929301,0.367718,0.034402,0.071798,0.036914,-0.175927,47.50824,11.341949,16.764282,,,,,,,
1532483321,1.608096,-0.349459,0.443559,-0.282503,-0.094244,1.364165,0.938905,0.34239,0.035037,-0.008851,0.055361,-0.112475,47.955994,9.755188,16.960999,,,,,,,
1532483321,1.609644,-0.3219,0.446748,-0.148414,0.114374,1.357844,0.94792,0.31637,0.036843,-0.129271,0.053717,-0.043434,48.068604,8.869049,16.952271,,,,,,,
1532483321,1.614984,-0.294508,0.446378,0.047309,0.338734,1.416507,0.956011,0.290269,0.042271,-0.086703,0.09265,-0.013188,48.100647,7.709625,17.106384,,,,,,,
1532483321,1.621435,-0.264687,0.439892,0.368061,0.479903,1.572648,0.963937,0.261607,0.048854,-0.134424,0.075216,0.014073,48.140503,6.113831,17.605774,,,,,,,
1532483321,1.630156,-0.22917,0.424146,0.83848,0.756186,1.984298,0.97214,0.227169,0.057773,-0.049273,-0.000103,-0.055988,48.273499,4.575348,18.088562,,,,,,,
1532483321,1.643001,-0.189118,0.400163,1.133756,0.968864,2.073296,0.979611,0.187993,0.070856,0.008502,0.024562,-0.045282,47.915527,3.254944,18.770447,,,,,,,
1532483321,1.658576,-0.154594,0.375046,1.018896,1.029162,1.648975,0.98427,0.153979,0.086621,0.027327,0.201016,-0.108594,47.533081,1.936493,19.507141,,,,,,,
1532483321,1.675973,-0.129271,0.357952,0.519377,0.949752,1.187788,0.986176,0.128912,0.104107,0.012237,0.285746,-0.166714,47.217651,0.587555,20.462189,,,,,,,
,,,,,,,,,,,,,,,,42.473843,-83.40493,253.021208,0.354236,-1,1532483321,
1532483321,1.691242,-0.108582,0.351745,0.014153,0.706134,1.051513,0.986909,0.108369,0.119447,0.004379,0.258803,-0.190035,46.685425,-0.174286,21.250366,,,,,,,
1532483321,1.70064,-0.085985,0.352497,-0.262282,0.284134,1.168347,0.987919,0.085879,0.129001,-0.0098,0.225172,-0.189563,46.450256,-1.370514,21.697998,,,,,,,
1532483321,1.703178,-0.062292,0.357387,-0.48991,0.031022,1.109012,0.989328,0.062252,0.131739,-0.014566,0.294193,-0.177195,46.347351,-2.463104,21.774963,,,,,,,
1532483321,1.704159,-0.040949,0.367613,-0.744358,0.042102,0.929175,0.990289,0.040938,0.132856,-0.060678,0.356127,-0.123167,46.254517,-3.562714,21.9599,,,,,,,
1532483321,1.705827,-0.022056,0.381568,-0.848646,0.070161,0.806207,0.990656,0.022054,0.134588,-0.086344,0.368403,-0.07662,46.445984,-4.868896,21.944702,,,,,,,
1532483321,1.706866,-0.004963,0.396318,-0.841723,0.002534,0.720797,0.990744,0.004963,0.135648,-0.129294,0.336986,-0.074461,46.001892,-6.216156,21.843048,,,,,,,
1532483321,1.706381,0.011172,0.411538,-0.892324,-0.011237,0.693272,0.99076,-0.011172,0.135161,-0.168357,0.31235,-0.113906,45.927612,-7.397491,21.737152,,,,,,,
1532483321,1.706914,0.026588,0.428007,-0.933724,0.057068,0.623719,0.9904,-0.026585,0.13565,-0.145108,0.343678,-0.104461,46.044983,-8.227783,21.512848,,,,,,,
1532483321,1.706982,0.039002,0.444636,-0.901001,0.045401,0.403786,0.989987,-0.038993,0.135661,-0.054639,0.482016,-0.11555,45.809326,-9.253082,21.497589,,,,,,,
1532483321,1.707787,0.044131,0.462562,-0.949927,0.063523,-0.072899,0.989666,-0.044116,0.136429,0.066471,0.6319,-0.095902,45.713562,-10.101776,21.402466,,,,,,,
1532483321,1.705826,0.037431,0.483413,-1.016859,-0.13233,-0.721327,0.990202,-0.037422,0.134526,0.095186,0.690026,-0.142048,45.591553,-10.254639,21.079468,,,,,,,
1532483321,1.700603,0.019857,0.507132,-1.079742,-0.283341,-1.18312,0.991391,-0.019856,0.129417,0.023227,0.5425,-0.169242,46.087769,-10.188873,20.687256,,,,,,,
1532483321,1.692772,-0.003733,0.531488,-1.036416,-0.443883,-1.39298,0.992562,0.003733,0.121673,-0.066369,0.337758,-0.159194,46.664856,-9.316559,20.192596,,,,,,,
1532483321,1.682734,-0.029901,0.552915,-0.800048,-0.566591,-1.445065,0.993296,0.029897,0.111654,-0.128779,0.199733,-0.086675,46.988281,-8.532318,19.533691,,,,,,,
1532483321,1.67201,-0.057628,0.566672,-0.372654,-0.536029,-1.469802,0.99323,0.057596,0.100873,-0.153783,0.12908,0.024035,47.267761,-7.763245,18.953369,,,,,,,
1532483321,1.66367,-0.086759,0.571827,0.043649,-0.365231,-1.476979,0.991944,0.08665,0.092391,-0.134477,0.078587,0.12851,47.804077,-6.48941,18.493408,,,,,,,
1532483321,1.659441,-0.115554,0.568526,0.448567,-0.075823,-1.390046,0.98943,0.115297,0.087938,-0.111256,0.024824,0.198896,48.054749,-5.221649,18.134247,,,,,,,
1532483321,1.660871,-0.142788,0.558513,0.694134,0.268446,-1.267133,0.985809,0.142304,0.089037,-0.038086,0.011703,0.218046,48.258667,-3.50238,18.133484,,,,,,,
1532483322,1.667514,-0.166531,0.546946,0.645161,0.485256,-1.042178,0.981556,0.165762,0.095231,0.025265,-0.001944,0.170043,48.243835,-2.115265,18.700378,,,,,,,
1532483322,1.675921,-0.185031,0.539825,0.2938,0.437862,-0.804374,0.977503,0.183977,0.10314,0.122564,0.02394,0.072214,47.74408,-0.986206,19.256012,,,,,,,
1532483322,1.681289,-0.19867,0.541702,-0.205172,0.127952,-0.634215,0.97435,0.197366,0.108099,0.178085,0.068824,-0.021887,47.595825,-0.527924,19.604279,,,,,,,
1532483322,1.681658,-0.208728,0.553278,-0.672024,-0.243258,-0.529852,0.972288,0.207215,0.108233,0.181154,0.081115,-0.043719,47.668213,0.083984,19.494141,,,,,,,
1532483322,1.676499,-0.21677,0.571871,-0.933379,-0.564948,-0.486801,0.971145,0.215076,0.103037,0.130265,0.090771,-0.012445,47.82019,0.057373,19.247131,,,,,,,
1532483322,1.668166,-0.224248,0.591416,-0.860276,-0.640433,-0.462548,0.970342,0.222373,0.094782,0.03834,0.069665,0.074881,48.017456,0.278168,18.632538,,,,,,,
1532483322,1.660563,-0.232383,0.606539,-0.578749,-0.477174,-0.494349,0.969201,0.230297,0.087236,-0.041055,0.031742,0.147871,48.187439,0.151703,17.983582,,,,,,,
1532483322,1.656171,-0.242431,0.615098,-0.249697,-0.21583,-0.56853,0.967221,0.240063,0.082777,-0.079205,0.006397,0.179246,48.338867,0.532257,17.813904,,,,,,,
1532483322,1.65601,-0.254213,0.618023,0.001106,0.04951,-0.614168,0.964349,0.251483,0.082375,-0.090905,-0.015827,0.168555,48.366699,0.976868,17.613892,,,,,,,
1532483322,1.658979,-0.266799,0.616721,0.184495,0.227455,-0.636867,0.960871,0.263645,0.084952,-0.071909,-0.04581,0.128503,48.284546,1.686584,17.713257,,,,,,,
1532483322,1.663445,-0.280583,0.613043,0.268496,0.29164,-0.692657,0.956772,0.276916,0.088898,-0.034821,-0.06076,0.086013,48.147461,2.318054,17.981262,,,,,,,
1532483322,1.668027,-0.294825,0.60898,0.257706,0.264999,-0.683386,0.952333,0.290572,0.092888,-0.014176,-0.092941,0.054695,47.936523,2.912048,18.315765,,,,,,,
1532483322,1.671927,-0.30826,0.606446,0.138784,0.207195,-0.639852,0.947993,0.303401,0.096199,0.018499,-0.124538,0.028801,47.904175,3.779785,18.368347,,,,,,,
1532483322,1.674975,-0.31989,0.60744,-0.054305,0.07997,-0.554235,0.944122,0.314462,0.098715,0.060822,-0.140817,0.014323,47.63269,4.400513,18.777313,,,,,,,
1532483322,1.676555,-0.329099,0.61241,-0.253121,-0.043118,-0.44633,0.941046,0.323191,0.099897,0.102534,-0.141047,-0.003675,47.71051,4.818329,18.830475,,,,,,,
1532483322,1.677116,-0.335393,0.620525,-0.38643,-0.138585,-0.31165,0.938949,0.32914,0.100206,0.121217,-0.149422,-0.004808,47.80127,5.189697,18.662903,,,,,,,
1532483322,1.676648,-0.338687,0.629798,-0.414473,-0.193517,-0.17077,0.937912,0.332249,0.099652,0.122848,-0.155445,-0.004392,47.747681,5.502899,18.545441,,,,,,,
1532483322,1.675241,-0.33945,0.637754,-0.325149,-0.196094,-0.045791,0.937799,0.332969,0.098305,0.094779,-0.157081,0.012,47.919678,5.543976,18.444397,,,,,,,
1532483322,1.673502,-0.338106,0.642355,-0.145452,-0.133692,0.083136,0.938413,0.331701,0.096721,0.069277,-0.144643,0.037846,47.956726,5.294983,18.19574,,,,,,,
1532483322,1.671721,-0.335043,0.642108,0.093371,-0.0551,0.180111,0.93959,0.32881,0.095151,0.053497,-0.109129,0.063861,48.067139,5.129425,18.074524,,,,,,,
1532483322,1.669562,-0.331328,0.636581,0.334502,0.005745,0.208887,0.941003,0.325299,0.093242,0.03498,-0.081372,0.078984,48.237244,5.062805,17.94165,,,,,,,
1532483322,1.66734,-0.328102,0.626733,0.511433,0.081576,0.195152,0.942247,0.322246,0.091252,0.006285,-0.077648,0.09399,47.990295,5.118225,18.107513,,,,,,,
1532483322,1.66681,-0.325032,0.615019,0.546262,0.208095,0.205946,0.943276,0.319339,0.090847,-0.017601,-0.08031,0.085941,48.023987,5.191711,18.137115,,,,,,,
1532483322,1.668439,-0.321565,0.604234,0.46075,0.274868,0.220842,0.944223,0.316051,0.092491,-0.016595,-0.061428,0.054909,47.965088,4.937042,18.258789,,,,,,,
1532483322,1.671409,-0.317977,0.595911,0.336524,0.265195,0.201706,0.945066,0.312645,0.095408,-0.006529,-0.031151,0.022039,47.738037,4.815948,18.404938,,,,,,,
1532483322,1.674244,-0.314877,0.589812,0.252018,0.208876,0.167019,0.945751,0.3097,0.098186,0.015263,-0.01017,-0.00584,47.719177,5.02829,18.679932,,,,,,,
1532483322,1.675979,-0.312523,0.584781,0.227341,0.142076,0.121554,0.946302,0.30746,0.099903,0.026491,-0.003871,-0.019459,47.602722,4.976227,18.815948,,,,,,,
1532483322,1.676929,-0.310285,0.579607,0.252227,0.114289,0.160159,0.946889,0.30533,0.100874,0.029933,-0.035631,-0.020751,47.532166,4.719269,18.892609,,,,,,,
1532483322,1.677293,-0.30695,0.573885,0.25565,0.105568,0.207023,0.947859,0.302152,0.101328,0.031359,-0.062803,-0.027155,47.63324,4.690735,18.990936,,,,,,,
1532483322,1.677766,-0.302587,0.568515,0.223572,0.105203,0.273574,0.949112,0.29799,0.101915,0.039886,-0.051942,-0.041047,47.671814,4.60376,19.097382,,,,,,,
1532483322,1.678384,-0.296401,0.563348,0.220701,0.111102,0.373648,0.950864,0.29208,0.102697,0.043826,-0.041897,-0.047217,47.697815,4.573944,19.266693,,,,,,,
1532483322,1.679011,-0.288406,0.557367,0.261785,0.127788,0.456401,0.95309,0.284424,0.103543,0.045476,-0.029542,-0.045651,47.699646,4.402924,19.469818,,,,,,,
1532483322,1.679766,-0.279146,0.550511,0.292561,0.153054,0.519859,0.955589,0.275534,0.104545,0.040978,-0.005881,-0.048667,47.746094,3.753632,19.401611,,,,,,,
,,,,,,,,,,,,,,,,42.473833,-83.404918,243.694475,0.189842,-1,1532483322,
1532483322,1.680776,-0.268613,0.542806,0.331909,0.162393,0.58125,0.958315,0.265395,0.105822,0.034925,0.002397,-0.043062,47.588562,3.593445,19.363953,,,,,,,
1532483322,1.681522,-0.25775,0.534224,0.371159,0.143276,0.59032,0.961044,0.254905,0.106849,0.040589,0.043358,-0.042656,47.559998,3.258575,19.732025,,,,,,,
1532483322,1.681488,-0.246997,0.524714,0.420331,0.109375,0.581378,0.963716,0.244493,0.107113,0.02664,0.065306,-0.02937,47.687927,2.748657,19.871155,,,,,,,
1532483322,1.681117,-0.23648,0.514126,0.481909,0.117931,0.590955,0.966258,0.234282,0.107033,0.005559,0.072252,-0.011314,47.629517,2.424255,19.763641,,,,,,,
1532483322,1.68096,-0.225513,0.502385,0.521785,0.134857,0.622578,0.96877,0.223607,0.107157,-0.017461,0.069591,0.010412,47.663086,2.099213,19.781799,,,,,,,
1532483322,1.680908,-0.214271,0.491139,0.455818,0.10499,0.621339,0.971213,0.212635,0.107376,-0.030448,0.08369,0.013031,47.366821,1.873199,19.910736,,,,,,,
1532483322,1.680662,-0.203008,0.482104,0.336711,0.067621,0.614926,0.973558,0.201616,0.107393,-0.043886,0.097044,0.026411,47.664307,1.349915,19.961151,,,,,,,
1532483322,1.679623,-0.191679,0.475315,0.234839,-0.017523,0.600039,0.975877,0.190508,0.106623,-0.045594,0.116896,0.030951,47.69635,1.085602,19.870453,,,,,,,
1532483322,1.677693,-0.180838,0.470675,0.13558,-0.070632,0.556607,0.978077,0.179854,0.104954,-0.050252,0.145235,0.036648,47.790955,0.40564,19.893402,,,,,,,
1532483322,1.675306,-0.170706,0.46821,0.031028,-0.115233,0.511,0.980087,0.169878,0.102803,-0.056686,0.1602,0.032237,47.921326,-0.16214,19.80484,,,,,,,
1532483322,1.672337,-0.16131,0.46801,-0.074514,-0.17577,0.462102,0.981933,0.160611,0.10005,-0.060683,0.171466,0.037569,47.694214,-0.706299,19.767944,,,,,,,
1532483322,1.66895,-0.152965,0.470271,-0.195693,-0.202212,0.392886,0.983565,0.152369,0.096852,-0.070159,0.17655,0.044383,47.883118,-1.293579,19.39859,,,,,,,
1532483322,1.665329,-0.145777,0.475214,-0.32445,-0.237207,0.330956,0.984974,0.145261,0.093391,-0.072788,0.182848,0.053002,48.021301,-1.784851,19.202362,,,,,,,
1532483322,1.661019,-0.139463,0.482666,-0.441789,-0.283962,0.286192,0.986261,0.139011,0.089226,-0.068613,0.185101,0.054161,48.315979,-2.222351,19.228119,,,,,,,
1532483322,1.657594,-0.133858,0.492918,-0.582426,-0.2265,0.228789,0.987322,0.133458,0.085913,-0.071505,0.184993,0.0608,48.516785,-2.59375,18.751251,,,,,,,
1532483322,1.65514,-0.129588,0.505881,-0.702508,-0.207208,0.155562,0.988088,0.129226,0.083538,-0.056677,0.203294,0.049016,48.288208,-2.876709,18.502289,,,,,,,
1532483322,1.653063,-0.12612,0.521029,-0.793452,-0.231646,0.121994,0.988701,0.125786,0.081521,-0.049797,0.204887,0.044456,48.346313,-3.374298,18.292664,,,,,,,
1532483322,1.650143,-0.123244,0.537871,-0.876746,-0.263464,0.077867,0.989291,0.122932,0.078662,-0.060839,0.201714,0.023358,48.512207,-3.980835,18.130981,,,,,,,
1532483323,1.647158,-0.12178,0.556213,-0.930419,-0.273738,-0.015708,0.9897,0.121479,0.075722,-0.065795,0.20808,0.0214,48.495789,-3.868591,17.667969,,,,,,,
1532483323,1.644403,-0.122011,0.57509,-0.929975,-0.24782,-0.100755,0.989876,0.121709,0.072994,-0.064202,0.222178,0.028569,48.55603,-4.525604,17.292847,,,,,,,
1532483323,1.642378,-0.124393,0.593576,-0.888432,-0.2004,-0.222284,0.98973,0.124072,0.070968,-0.058562,0.230649,0.045014,48.614929,-4.831085,17.052612,,,,,,,
1532483323,1.641552,-0.12959,0.611204,-0.835823,-0.13265,-0.368019,0.989131,0.129228,0.070104,-0.053142,0.220916,0.058971,48.788025,-4.748199,17.019409,,,,,,,
1532483323,1.64196,-0.137369,0.628144,-0.79766,-0.069336,-0.47994,0.98807,0.136938,0.070434,-0.048906,0.202967,0.056473,48.863953,-4.595428,16.766113,,,,,,,
1532483323,1.643643,-0.147104,0.644778,-0.783251,-0.018902,-0.573152,0.986573,0.146574,0.071996,-0.044618,0.178301,0.047862,48.854736,-4.430023,16.801147,,,,,,,
1532483323,1.646098,-0.158351,0.661632,-0.794825,-0.009036,-0.640376,0.984687,0.15769,0.074289,-0.042091,0.150308,0.030798,48.953796,-4.240387,16.614807,,,,,,,
1532483323,1.648842,-0.170817,0.679165,-0.830801,-0.005561,-0.712295,0.982444,0.169988,0.076831,-0.029654,0.135203,0.017834,49.191711,-3.78006,16.590332,,,,,,,
1532483323,1.652144,-0.184659,0.697786,-0.869951,-0.001026,-0.785325,0.979746,0.183612,0.079876,-0.012857,0.122602,0.018146,49.042175,-3.704742,16.588562,,,,,,,
1532483323,1.656093,-0.199448,0.717026,-0.881984,0.025735,-0.827981,0.97661,0.198128,0.083504,-0.002581,0.095695,0.016807,49.137573,-3.131592,16.434753,,,,,,,
1532483323,1.660995,-0.214703,0.736566,-0.890068,0.053486,-0.853531,0.973065,0.213057,0.088008,0.012225,0.068345,0.00443,49.428589,-2.518066,16.590759,,,,,,,
1532483323,1.666996,-0.230021,0.756863,-0.930471,0.085338,-0.858297,0.969157,0.227998,0.093521,0.030766,0.047759,-0.015991,49.22229,-2.193176,16.621704,,,,,,,
1532483323,1.673385,-0.244945,0.778317,-0.979678,0.056491,-0.844346,0.965047,0.242503,0.099352,0.047556,0.031102,-0.041979,49.044495,-1.439606,16.69458,,,,,,,
1532483323,1.679422,-0.259554,0.800408,-0.983947,0.009692,-0.841458,0.960805,0.25665,0.104781,0.062098,0.014957,-0.061064,49.099121,-1.102692,16.642578,,,,,,,
1532483323,1.68459,-0.273809,0.82198,-0.930049,-0.039249,-0.816324,0.956519,0.2704,0.109318,0.065622,-0.001815,-0.070378,49.195312,-0.501251,16.798828,,,,,,,
1532483323,1.689015,-0.287346,0.841819,-0.82656,-0.056324,-0.76785,0.952304,0.283408,0.113107,0.064771,-0.025427,-0.065469,49.203369,-0.345032,16.621277,,,,,,,
1532483323,1.693307,-0.300211,0.859526,-0.728167,-0.027624,-0.734137,0.948112,0.295722,0.116739,0.067407,-0.037513,-0.056939,49.227173,0.250031,16.583618,,,,,,,
1532483323,1.697895,-0.312923,0.875632,-0.657005,-0.006288,-0.725402,0.943761,0.307841,0.120601,0.066813,-0.04803,-0.057399,49.114319,0.673157,16.585083,,,,,,,
1532483323,1.702499,-0.325327,0.8905,-0.596855,0.001108,-0.695622,0.939338,0.319618,0.124434,0.060021,-0.070992,-0.059737,49.173706,0.845398,16.602356,,,,,,,
1532483323,1.707236,-0.337008,0.904392,-0.559301,0.019042,-0.653385,0.934975,0.330665,0.128365,0.057029,-0.094901,-0.061577,49.163269,1.563843,16.612549,,,,,,,
1532483323,1.711989,-0.347861,0.917856,-0.549389,0.001853,-0.61178,0.930746,0.340888,0.132295,0.059518,-0.105933,-0.069658,49.039795,2.173187,16.62793,,,,,,,
1532483323,1.715963,-0.357777,0.931391,-0.561808,-0.053652,-0.569672,0.926823,0.350193,0.135497,0.063915,-0.117649,-0.080489,49.091187,2.260986,16.675537,,,,,,,
1532483323,1.719265,-0.366793,0.945296,-0.58588,-0.090017,-0.531919,0.92321,0.358623,0.138084,0.068397,-0.130215,-0.082435,49.11853,2.359802,16.642212,,,,,,,
1532483323,1.721982,-0.374735,0.959623,-0.609166,-0.136022,-0.478229,0.919987,0.366026,0.140159,0.064876,-0.146055,-0.083472,48.97522,3.033752,16.540344,,,,,,,
1532483323,1.72426,-0.381609,0.974248,-0.622718,-0.161771,-0.43386,0.917157,0.372414,0.141866,0.062808,-0.157983,-0.088567,48.924927,2.896515,16.744202,,,,,,,
1532483323,1.725987,-0.387591,0.988731,-0.609678,-0.188546,-0.387993,0.914693,0.377959,0.143103,0.06573,-0.165175,-0.098211,49.028809,3.422577,16.354065,,,,,,,
1532483323,1.726915,-0.392562,1.002189,-0.5501,-0.206819,-0.325343,0.912693,0.382557,0.143657,0.063549,-0.175434,-0.098644,48.784058,3.625183,16.416199,,,,,,,
1532483323,1.727367,-0.396459,1.013714,-0.459752,-0.178288,-0.258755,0.911148,0.386155,0.143836,0.065674,-0.18509,-0.091484,49.224182,3.091217,16.299805,,,,,,,
1532483323,1.727406,-0.399375,1.022841,-0.347991,-0.161386,-0.198261,0.910027,0.388842,0.143696,0.073188,-0.186755,-0.088474,49.183472,3.431091,16.004089,,,,,,,
1532483323,1.726756,-0.401488,1.029322,-0.23401,-0.139141,-0.143027,0.909306,0.390788,0.142976,0.079921,-0.186732,-0.09163,49.164856,3.573334,16.012573,,,,,,,
1532483323,1.725463,-0.402705,1.033145,-0.123448,-0.119089,-0.075084,0.90902,0.391908,0.141727,0.078208,-0.19774,-0.086246,49.355347,3.937988,15.711243,,,,,,,
1532483323,1.723486,-0.40255,1.034829,-0.054707,-0.12257,0.010153,0.909358,0.391766,0.139939,0.083303,-0.196164,-0.084412,49.378479,3.630249,15.774719,,,,,,,
,,,,,,,,,,,,,,,,42.473838,-83.404949,243.760834,0.354236,-1,1532483323,
1532483323,1.720752,-0.400988,1.035327,-0.019799,-0.140936,0.083044,0.910341,0.390329,0.137543,0.085142,-0.190927,-0.078324,49.012634,3.589355,15.732849,,,,,,,
1532483323,1.717469,-0.398182,1.034804,0.024685,-0.139079,0.155129,0.911868,0.387743,0.134713,0.081296,-0.1859,-0.057946,49.343323,3.464478,15.460632,,,,,,,
1532483323,1.713706,-0.393967,1.032847,0.082859,-0.141495,0.235938,0.913978,0.383854,0.131513,0.081002,-0.178807,-0.041348,49.354858,3.331757,15.437012,,,,,,,
1532483323,1.709242,-0.388317,1.029511,0.13461,-0.146057,0.318759,0.916689,0.378631,0.127729,0.08473,-0.162567,-0.025785,49.60144,2.977203,15.101807,,,,,,,
1532483323,1.704833,-0.38116,1.024869,0.1874,-0.105961,0.400758,0.919905,0.371998,0.124045,0.079301,-0.144977,-0.005881,49.552368,2.611145,15.108704,,,,,,,
1532483323,1.700959,-0.372751,1.019053,0.23298,-0.05943,0.468827,0.923448,0.364179,0.120882,0.072371,-0.126767,0.008161,49.755188,2.260406,15.105591,,,,,,,
1532483323,1.697718,-0.362952,1.012351,0.261341,-0.032121,0.548228,0.92733,0.355035,0.118335,0.065178,-0.108972,0.012555,49.710266,2.056122,14.995728,,,,,,,
1532483323,1.694064,-0.351834,1.005192,0.270932,-0.071729,0.608881,0.931617,0.34462,0.115424,0.062616,-0.080322,0.004205,49.959717,1.319916,14.932434,,,,,,,
1532483323,1.689532,-0.339973,0.997842,0.281113,-0.107989,0.636552,0.936123,0.333462,0.111676,0.053241,-0.054516,0.010699,49.865112,0.777802,14.729492,,,,,,,
1532483323,1.684694,-0.327755,0.990143,0.308509,-0.114405,0.652944,0.94063,0.321919,0.107602,0.049848,-0.029148,0.022739,49.819458,0.082947,14.681824,,,,,,,
1532483323,1.679977,-0.315394,0.981675,0.357315,-0.092038,0.661315,0.945011,0.310191,0.103589,0.037411,-0.008052,0.041492,49.777832,-0.386688,14.427551,,,,,,,
1532483323,1.675535,-0.303241,0.972132,0.411771,-0.06533,0.6517,0.949141,0.298615,0.099777,0.026491,0.009552,0.056976,49.743042,-0.769714,14.709229,,,,,,,
1532483323,1.671762,-0.291007,0.962047,0.423209,-0.026036,0.664864,0.953074,0.286917,0.096557,0.016072,0.022455,0.062379,49.733032,-1.35199,14.54895,,,,,,,
1532483323,1.669174,-0.278734,0.952321,0.397819,0.027138,0.653,0.956754,0.275139,0.094428,0.01192,0.036354,0.064523,50.076965,-1.911804,14.445862,,,,,,,
1532483323,1.667569,-0.266744,0.943274,0.373438,0.040953,0.646278,0.960119,0.263592,0.093204,0.01385,0.057178,0.063702,49.966858,-2.316986,14.547607,,,,,,,
1532483323,1.666237,-0.25455,0.934524,0.362744,0.050496,0.648279,0.96337,0.25181,0.092225,0.008173,0.063147,0.059462,50.049927,-2.816864,14.573242,,,,,,,
1532483323,1.665293,-0.242795,0.926328,0.334489,0.044201,0.621161,0.966337,0.240417,0.091588,0.007967,0.086136,0.058818,50.064087,-3.186707,14.571167,,,,,,,
1532483323,1.664414,-0.231338,0.918964,0.29329,0.038901,0.603417,0.969096,0.22928,0.09099,-0.007365,0.09944,0.058958,50.019348,-3.73764,14.610229,,,,,,,
1532483324,1.663724,-0.220264,0.912593,0.239442,0.037875,0.578033,0.971627,0.218487,0.090551,-0.017373,0.111271,0.063944,49.785706,-4.112152,14.685669,,,,,,,
1532483324,1.663435,-0.209742,0.907428,0.192238,0.032668,0.538894,0.973889,0.208207,0.090478,-0.023113,0.127456,0.069541,49.77478,-4.548126,14.633057,,,,,,,
1532483324,1.663363,-0.200038,0.903161,0.151534,0.045583,0.492501,0.975861,0.198706,0.090591,-0.032456,0.144556,0.075379,49.620422,-4.982239,14.868774,,,,,,,
1532483324,1.663773,-0.191292,0.899626,0.128949,0.057463,0.445336,0.977517,0.190128,0.091149,-0.031319,0.163739,0.078696,49.592529,-5.55365,14.980591,,,,,,,
1532483324,1.66472,-0.183191,0.896678,0.097542,0.086268,0.414083,0.978931,0.182168,0.092216,-0.039783,0.174536,0.081414,49.582458,-6.021301,14.953857,,,,,,,
1532483324,1.666278,-0.175888,0.894671,0.052591,0.090667,0.367577,0.980085,0.174982,0.093865,-0.040159,0.18511,0.083365,49.558838,-6.327148,15.009399,,,,,,,
1532483324,1.668168,-0.169304,0.893702,-0.00111,0.096061,0.333708,0.981031,0.168496,0.095827,-0.045698,0.191474,0.081007,49.395691,-6.666565,15.216492,,,,,,,
1532483324,1.66993,-0.16321,0.894021,-0.06873,0.071631,0.305849,0.981864,0.162486,0.097656,-0.047538,0.199223,0.077622,49.443481,-6.931305,15.29187,,,,,,,
1532483324,1.671571,-0.157588,0.895996,-0.15544,0.050385,0.273432,0.982597,0.156936,0.099357,-0.048606,0.20514,0.077462,49.04895,-7.282959,15.362183,,,,,,,
1532483324,1.672861,-0.152373,0.899954,-0.257153,0.016328,0.247092,0.983268,0.151784,0.100707,-0.052604,0.217906,0.074342,49.185791,-7.563416,15.112,,,,,,,
1532483324,1.673911,-0.147371,0.905999,-0.360111,-0.009273,0.230356,0.983905,0.146838,0.101816,-0.060489,0.218198,0.069265,49.043701,-7.747437,15.127869,,,,,,,
1532483324,1.674878,-0.142437,0.914134,-0.459909,-0.024238,0.214791,0.984515,0.141956,0.102841,-0.069979,0.224973,0.062976,49.338928,-8.412567,15.090942,,,,,,,
1532483324,1.675454,-0.137801,0.924108,-0.54344,-0.064631,0.18446,0.9851,0.137365,0.103477,-0.069572,0.243479,0.055978,49.109863,-8.535889,15.10199,,,,,,,
1532483324,1.675664,-0.134007,0.935543,-0.603003,-0.08357,0.122688,0.985589,0.133606,0.103737,-0.075738,0.254653,0.056175,49.160583,-8.767487,14.801392,,,,,,,
1532483324,1.67573,-0.131635,0.947871,-0.627165,-0.08962,0.045592,0.985895,0.131255,0.103835,-0.083414,0.258805,0.049332,49.072754,-9.246185,14.740662,,,,,,,
1532483324,1.67573,-0.130709,0.960641,-0.63857,-0.096722,-0.030233,0.986016,0.130337,0.103848,-0.091607,0.26015,0.043827,49.058472,-9.560516,14.579102,,,,,,,
1532483324,1.675335,-0.131632,0.973857,-0.656947,-0.123912,-0.13183,0.985936,0.131253,0.103446,-0.096441,0.265476,0.034829,49.095886,-9.455322,14.406738,,,,,,,
1532483324,1.6746,-0.134583,0.987907,-0.69338,-0.147934,-0.235838,0.985623,0.134177,0.10268,-0.102871,0.260644,0.025982,49.206604,-9.438507,14.132629,,,,,,,
1532483324,1.673532,-0.139225,1.002933,-0.730219,-0.17312,-0.317498,0.985102,0.138776,0.101562,-0.109674,0.241458,0.020096,49.085693,-9.421783,13.78894,,,,,,,
1532483324,1.672217,-0.145563,1.018803,-0.759251,-0.189695,-0.419217,0.98434,0.14505,0.100176,-0.097209,0.243485,0.005888,49.351868,-9.343353,13.570923,,,,,,,
1532483324,1.670467,-0.154306,1.034929,-0.730153,-0.238981,-0.554215,0.983214,0.153694,0.098323,-0.0679,0.254494,-0.007595,49.588562,-9.04483,13.227905,,,,,,,
1532483324,1.667718,-0.165811,1.049298,-0.589534,-0.25307,-0.675483,0.981655,0.165053,0.095443,-0.054821,0.240389,-0.007766,49.600098,-8.921021,13.032959,,,,,,,
1532483324,1.664898,-0.179613,1.060439,-0.417665,-0.234326,-0.759866,0.979559,0.178649,0.092451,-0.048071,0.200852,0.007067,49.969238,-8.335388,12.64978,,,,,,,
1532483324,1.66187,-0.194414,1.069188,-0.334396,-0.244773,-0.771322,0.977095,0.193191,0.089235,-0.041761,0.157669,0.026198,50.03009,-7.667328,12.358276,,,,,,,
1532483324,1.658733,-0.208824,1.077627,-0.369179,-0.233317,-0.732441,0.974495,0.20731,0.085915,-0.032387,0.12762,0.039924,50.035339,-7.123047,12.088196,,,,,,,
1532483324,1.656136,-0.222151,1.088195,-0.516728,-0.271992,-0.696737,0.971876,0.220328,0.083141,-0.01367,0.116754,0.034031,50.250549,-6.481232,11.989868,,,,,,,
1532483324,1.653816,-0.234682,1.102649,-0.726943,-0.294773,-0.670507,0.969239,0.232533,0.080652,-0.017899,0.099162,0.027259,50.291382,-6.007324,11.496948,,,,,,,
1532483324,1.65202,-0.246229,1.120707,-0.889589,-0.289925,-0.626315,0.966641,0.243748,0.078687,-0.010541,0.082485,0.009768,50.433228,-5.485748,11.034424,,,,,,,
1532483324,1.65236,-0.256527,1.142065,-1.04374,-0.247847,-0.582861,0.964061,0.253723,0.078808,-0.014904,0.081635,-0.007,50.751526,-4.952484,10.919373,,,,,,,
1532483324,1.653433,-0.265852,1.166139,-1.173156,-0.266279,-0.549951,0.961576,0.262731,0.079643,-0.027311,0.071818,-0.046378,50.746643,-4.687073,10.652344,,,,,,,
1532483324,1.654836,-0.274758,1.193007,-1.30392,-0.31535,-0.558745,0.959094,0.271314,0.080792,-0.034579,0.062961,-0.080441,50.624451,-4.558411,10.111023,,,,,,,
1532483324,1.655895,-0.28385,1.222625,-1.433283,-0.376028,-0.585676,0.95651,0.280054,0.081595,-0.038663,0.052847,-0.10903,51.143799,-4.370361,9.725586,,,,,,,
1532483324,1.656485,-0.292892,1.254744,-1.535515,-0.467645,-0.58037,0.9539,0.288722,0.081939,-0.030697,0.035115,-0.116637,51.109436,-3.933624,9.446899,,,,,,,
,,,,,,,,,,,,,,,,42.473836,-83.40496,243.585674,0.43191,-1,1532483324,
1532483324,1.655818,-0.301289,1.288708,-1.618019,-0.560428,-0.547059,0.951505,0.296751,0.081094,-0.022306,0.024126,-0.126336,51.230103,-3.759583,8.867004,,,,,,,
1532483324,1.654628,-0.30898,1.324136,-1.676043,-0.611702,-0.515266,0.949299,0.304087,0.079769,-0.015659,0.013586,-0.119533,51.294739,-3.300507,8.013855,,,,,,,
1532483324,1.653452,-0.315748,1.360351,-1.70371,-0.612019,-0.45716,0.947319,0.310527,0.078481,-0.009102,0.001286,-0.104665,51.492432,-3.407959,7.292358,,,,,,,
1532483324,1.65275,-0.320829,1.397357,-1.767178,-0.627458,-0.361387,0.945789,0.315354,0.077685,0.007168,-0.003037,-0.092196,51.486206,-3.447083,6.628479,,,,,,,
1532483324,1.652161,-0.323781,1.436669,-1.915736,-0.67278,-0.269299,0.944903,0.318153,0.077052,0.017118,-0.001137,-0.084422,51.471313,-3.112091,5.996948,,,,,,,
1532483324,1.652203,-0.325155,1.479878,-2.124281,-0.696743,-0.217492,0.944463,0.319456,0.077056,0.025798,0.002855,-0.083648,51.501587,-3.314178,5.35321,,,,,,,
1532483324,1.653663,-0.325496,1.527465,-2.331201,-0.684403,-0.198484,0.944241,0.319779,0.078426,0.049595,0.031265,-0.089443,51.481812,-3.314697,4.688721,,,,,,,
1532483324,1.656671,-0.32542,1.578749,-2.490678,-0.668638,-0.21275,0.944025,0.319707,0.081268,0.083945,0.077068,-0.097579,51.619324,-3.451508,3.813782,,,,,,,
1532483324,1.660684,-0.325795,1.63314,-2.630406,-0.679282,-0.257702,0.943572,0.320062,0.085045,0.117219,0.107551,-0.114235,51.662476,-3.369751,3.039551,,,,,,,
1532483324,1.664692,-0.326124,1.690273,-2.753621,-0.733629,-0.271721,0.943118,0.320374,0.088816,0.126386,0.091827,-0.153574,51.605896,-3.355194,2.31073,,,,,,,
1532483324,1.668747,-0.32672,1.750145,-2.878326,-0.789943,-0.320914,0.94256,0.320938,0.092621,0.109152,0.049728,-0.191971,51.724854,-3.337799,1.593384,,,,,,,
1532483324,1.672069,-0.327297,1.812155,-2.959252,-0.860255,-0.317279,0.942063,0.321484,0.095733,0.059921,0.000949,-0.223953,51.720337,-3.189758,0.549011,,,,,,,
1532483324,1.674654,-0.326781,1.874696,-2.947714,-0.8914,-0.246968,0.941977,0.320996,0.098185,0.019723,-0.05679,-0.229395,51.859253,-2.923889,-0.520203,,,,,,,
1532483324,1.67543,-0.323886,1.934562,-2.783353,-0.933349,-0.089004,0.942821,0.318253,0.099012,-0.004894,-0.08751,-0.211973,51.810791,-2.702209,-1.546326,,,,,,,
1532483324,1.675521,-0.318532,1.990357,-2.616187,-0.843255,0.024948,0.944493,0.313172,0.099275,-0.040471,-0.085954,-0.18506,51.700745,-2.890442,-2.420898,,,,,,,
1532483324,1.67612,-0.311763,2.043057,-2.503818,-0.753097,0.107116,0.94652,0.306738,0.100061,-0.048983,-0.052084,-0.166849,51.516663,-2.675903,-3.178406,,,,,,,
1532483324,1.678467,-0.303679,2.094056,-2.459089,-0.610807,0.158615,0.948717,0.299033,0.102545,-0.053453,-0.018821,-0.160147,51.40332,-2.764893,-3.922974,,,,,,,
1532483325,1.682533,-0.295085,2.144407,-2.451837,-0.506635,0.164583,0.950811,0.290821,0.106685,-0.041402,0.030727,-0.172924,51.471497,-2.970642,-4.651855,,,,,,,
1532483325,1.687621,-0.286419,2.194688,-2.465476,-0.457684,0.150761,0.952723,0.282519,0.11181,-0.027186,0.075803,-0.207651,51.240112,-2.90329,-5.008545,,,,,,,
1532483325,1.692589,-0.278057,2.245732,-2.526335,-0.47456,0.101756,0.954468,0.274488,0.116826,-0.020416,0.106494,-0.242604,51.32959,-2.805023,-5.587524,,,,,,,
1532483325,1.696639,-0.270686,2.298708,-2.632293,-0.550877,0.017633,0.955968,0.267392,0.120941,-0.031331,0.123416,-0.267395,51.092529,-2.48288,-6.235962,,,,,,,
1532483325,1.698925,-0.264725,2.353953,-2.73477,-0.665396,-0.080467,0.957253,0.261644,0.123327,-0.044655,0.124815,-0.285085,50.936584,-2.372101,-7.023071,,,,,,,
1532483325,1.699223,-0.260509,2.411184,-2.808344,-0.769196,-0.187619,0.958302,0.257572,0.123753,-0.060032,0.121212,-0.290516,50.886536,-1.772797,-7.745605,,,,,,,
1532483325,1.697593,-0.258337,2.469639,-2.84156,-0.877213,-0.288802,0.959055,0.255473,0.122261,-0.071069,0.117238,-0.288551,50.71521,-1.203003,-8.525513,,,,,,,
1532483325,1.694387,-0.258243,2.528289,-2.809831,-0.921324,-0.392851,0.959465,0.255382,0.119189,-0.082222,0.100559,-0.274188,50.725708,-0.428314,-9.452454,,,,,,,
1532483325,1.690763,-0.261335,2.585497,-2.695064,-0.909729,-0.558073,0.959102,0.258371,0.115615,-0.084819,0.096991,-0.252487,50.451904,0.301147,-10.239441,,,,,,,
1532483325,1.687893,-0.268325,2.640147,-2.531433,-0.832159,-0.720028,0.957613,0.265117,0.112648,-0.068804,0.099797,-0.238106,50.039856,1.363037,-10.949951,,,,,,,
1532483325,1.685516,-0.27867,2.69159,-2.350096,-0.809958,-0.857478,0.955102,0.275077,0.110052,-0.0328,0.093484,-0.235632,49.930786,3.019775,-11.462646,,,,,,,
1532483325,1.682234,-0.292377,2.739711,-2.165361,-0.870651,-1.001677,0.951622,0.288229,0.106487,0.009484,0.089517,-0.233135,49.662415,4.095428,-12.052063,,,,,,,
1532483325,1.677855,-0.309267,2.785055,-2.035238,-0.899604,-1.130646,0.947103,0.304361,0.101784,0.037074,0.065543,-0.230126,49.243286,5.453949,-12.704773,,,,,,,
1532483325,1.673631,-0.328829,2.82888,-1.948208,-0.911742,-1.232557,0.941421,0.322935,0.097153,0.063492,0.029024,-0.224045,48.742798,7.401733,-13.164185,,,,,,,
1532483325,1.669613,-0.350962,2.870864,-1.819266,-0.899257,-1.357078,0.934461,0.343801,0.092642,0.09096,0.002329,-0.199286,47.837524,9.135712,-13.719116,,,,,,,
1532483325,1.665831,-0.376525,2.909803,-1.630186,-0.858892,-1.511346,0.925752,0.367691,0.088244,0.167632,0.006714,-0.175372,47.741882,10.593628,-14.260681,,,,,,,
1532483325,1.663517,-0.404278,2.945006,-1.42971,-0.773425,-1.532099,0.915438,0.393355,0.085124,0.294798,0.008302,-0.131679,47.10675,12.495361,-14.574097,,,,,,,
1532483325,1.660398,-0.429741,2.977021,-1.346422,-0.804123,-1.307269,0.905427,0.416635,0.081346,0.373672,-0.05726,-0.085542,46.650085,14.272186,-14.9245,,,,,,,
1532483325,1.661923,-0.448867,3.013485,-1.790988,-0.629839,-0.990029,0.897201,0.433945,0.081986,0.470902,-0.044556,-0.094818,45.763,15.555664,-15.047241,,,,,,,
1532483325,1.673673,-0.461079,3.067671,-2.770116,-0.677043,-0.777493,0.890838,0.444915,0.091971,0.561082,0.042146,-0.199942,45.453674,17.244781,-14.976196,,,,,,,
1532483325,1.687059,-0.468314,-3.139129,-3.704911,-1.288897,-0.751275,0.886307,0.451382,0.103511,0.554505,0.067249,-0.321132,44.94574,18.727875,-14.655945,,,,,,,
1532483325,1.696953,-0.475004,-3.046262,-4.270638,-1.797353,-0.884556,0.882224,0.457342,0.111892,0.431207,-0.015203,-0.351837,44.046082,20.469574,-14.289062,,,,,,,
1532483325,1.702349,-0.48116,-2.947102,-4.337903,-2.132481,-0.857536,0.878799,0.462808,0.11628,0.16185,-0.208169,-0.295861,43.169006,22.247833,-14.155884,,,,,,,
1532483325,1.701379,-0.486436,-2.854193,-3.845056,-2.235174,-0.784965,0.876478,0.467478,0.115108,-0.092375,-0.385279,-0.194484,42.255676,23.898773,-14.181213,,,,,,,
1532483325,1.696166,-0.493622,-2.778339,-2.939004,-1.888155,-0.798081,0.873711,0.473819,0.110114,-0.177514,-0.418978,-0.053703,41.247375,25.600739,-14.272339,,,,,,,
1532483325,1.691905,-0.50351,-2.724147,-1.952931,-1.298784,-0.773519,0.869479,0.482503,0.105819,-0.132922,-0.339574,0.066682,40.64502,27.04718,-14.363647,,,,,,,
1532483325,1.689807,-0.513885,-2.690223,-1.135231,-0.713465,-0.622915,0.864682,0.491564,0.103395,-0.072262,-0.278384,0.118788,39.899231,27.644806,-14.174561,,,,,,,
1532483325,1.692777,-0.520515,-2.67094,-0.660062,-0.132632,-0.312942,0.861117,0.497327,0.105564,-0.005847,-0.244138,0.096249,39.808167,28.543335,-14.110291,,,,,,,
1532483325,1.701849,-0.522029,-2.656181,-0.67617,0.159694,-0.08387,0.859376,0.49864,0.113272,0.067153,-0.181272,-0.022193,39.800232,28.707397,-13.759277,,,,,,,
1532483325,1.713242,-0.520277,-2.636502,-1.005183,-0.042092,-0.014713,0.858894,0.49712,0.12318,0.104409,-0.131581,-0.166118,39.599731,28.888031,-13.070374,,,,,,,
1532483325,1.720888,-0.517375,-2.607385,-1.461497,-0.528387,-0.0758,0.859349,0.494601,0.129959,0.111842,-0.120287,-0.265914,39.306824,29.32312,-12.649841,,,,,,,
1532483325,1.724035,-0.51563,-2.568426,-1.812962,-0.961998,-0.226464,0.859787,0.493083,0.132794,0.066559,-0.134593,-0.266232,38.961182,29.801544,-12.342834,,,,,,,
1532483325,1.723276,-0.514914,-2.525684,-1.846352,-1.153289,-0.254597,0.860237,0.49246,0.132195,0.030281,-0.194075,-0.2044,38.6875,30.843231,-11.983948,,,,,,,
,,,,,,,,,,,,,,,,42.473826,-83.404945,243.487875,0.201202,30.016284,1532483325,
1532483325,1.71991,-0.515126,-2.485878,-1.630777,-1.150691,-0.281906,0.860574,0.492644,0.129283,0.004126,-0.211349,-0.132823,38.412415,31.324768,-11.736084,,,,,,,
1532483325,1.714495,-0.516559,-2.453226,-1.258353,-1.028942,-0.274082,0.860562,0.493891,0.12452,-0.003536,-0.222514,-0.080284,37.76947,31.584351,-11.514832,,,,,,,
1532483325,1.7079,-0.519221,-2.43058,-0.789988,-0.800665,-0.277982,0.860059,0.496204,0.118661,-0.019925,-0.239918,-0.037195,37.403137,31.957092,-11.378235,,,,,,,
1532483325,1.701402,-0.523068,-2.418199,-0.364983,-0.555648,-0.239921,0.858913,0.49954,0.112821,-0.006908,-0.273619,0.00455,37.074829,32.699127,-11.442871,,,,,,,
1532483325,1.693814,-0.525346,-2.413514,-0.108335,-0.523105,-0.066217,0.858612,0.501512,0.106161,0.012161,-0.308534,-0.016561,36.880432,32.575256,-11.895142,,,,,,,
1532483325,1.683548,-0.523998,-2.412579,-0.051961,-0.529186,0.114635,0.860328,0.500346,0.097417,0.046777,-0.330088,-0.064885,37.064392,32.412292,-12.155457,,,,,,,
1532483325,1.671408,-0.521335,-2.411362,-0.090035,-0.718466,0.109861,0.86277,0.498038,0.087099,0.13694,-0.265982,-0.046052,36.87323,32.422302,-12.651184,,,,,,,
1532483325,1.659176,-0.519184,-2.407923,-0.212135,-0.667523,0.08787,0.864835,0.496172,0.076634,0.097155,-0.25107,-0.006046,36.750549,32.354034,-12.746033,,,,,,,
1532483325,1.648915,-0.517025,-2.402048,-0.303828,-0.671954,0.094853,0.866642,0.494296,0.067839,0.121807,-0.221286,0.040422,36.495789,32.302399,-12.984558,,,,,,,
1532483325,1.639254,-0.513449,-2.394747,-0.339767,-0.674628,0.198598,0.869015,0.491184,0.059584,0.109699,-0.221119,0.067476,36.613892,32.37558,-13.301514,,,,,,,
1532483325,1.629273,-0.507502,-2.38862,-0.255332,-0.632434,0.297101,0.872467,0.485996,0.051078,0.08165,-0.225467,0.101861,36.493347,32.57254,-13.539185,,,,,,,
1532483325,1.619059,-0.500808,-2.3853,-0.11615,-0.582312,0.311363,0.876173,0.480135,0.042319,0.057603,-0.203218,0.126336,36.767639,32.428467,-13.927795,,,,,,,
1532483325,1.607346,-0.494961,-2.384916,0.009478,-0.611616,0.254725,0.879399,0.474998,0.032156,0.038844,-0.170783,0.142679,36.445007,32.217285,-14.061707,,,,,,,
1532483325,1.594822,-0.490659,-2.386956,0.11938,-0.55793,0.180142,0.881768,0.471208,0.02119,0.02079,-0.161714,0.182958,36.412231,31.909729,-14.642822,,,,,,,
1532483325,1.583602,-0.487505,-2.390284,0.144642,-0.455599,0.132092,0.883432,0.468423,0.011313,0.023596,-0.160135,0.208245,36.494324,31.739685,-15.044128,,,,,,,
1532483325,1.573754,-0.485071,-2.392687,0.068536,-0.45451,0.101027,0.884638,0.466271,0.002617,0.039434,-0.13514,0.224205,36.309753,31.794983,-15.229187,,,,,,,
1532483325,1.564742,-0.483203,-2.392364,-0.068201,-0.476895,0.067778,0.885495,0.464618,-0.005361,0.059528,-0.107349,0.225683,36.218872,31.630829,-15.514282,,,,,,,
1532483326,1.556968,-0.48258,-2.389099,-0.181952,-0.479938,-0.001197,0.885716,0.464066,-0.012248,0.095424,-0.081803,0.22697,36.08905,31.801453,-15.657837,,,,,,,
1532483326,1.550766,-0.482957,-2.384165,-0.231505,-0.420337,-0.03153,0.885448,0.4644,-0.017738,0.114705,-0.080306,0.217079,35.986816,32.014618,-15.835449,,,,,,,
1532483326,1.546674,-0.483768,-2.378685,-0.254708,-0.289516,-0.050422,0.884991,0.465118,-0.021352,0.147663,-0.078582,0.196111,35.764038,32.039001,-15.987915,,,,,,,
1532483326,1.545564,-0.486174,-2.372761,-0.270609,-0.16242,-0.178887,0.883845,0.467247,-0.022306,0.243749,-0.001198,0.151014,35.646606,32.408569,-16.034241,,,,,,,
1532483326,1.545014,-0.492219,-2.368512,-0.134205,-0.116669,-0.364877,0.880994,0.472583,-0.022719,0.338474,0.037763,0.125151,35.330566,32.598236,-15.84491,,,,,,,
1532483326,1.543236,-0.500631,-2.369863,0.161065,-0.00099,-0.447801,0.876947,0.47998,-0.024175,0.375327,-0.018691,0.119756,35.075439,33.134247,-16.068542,,,,,,,
1532483326,1.540975,-0.508731,-2.379117,0.533234,0.173584,-0.369439,0.872975,0.487069,-0.026041,0.291606,-0.182,0.140512,34.916931,33.437836,-16.098877,,,,,,,
1532483326,1.538119,-0.512408,-2.396368,0.860174,0.339675,-0.085293,0.871101,0.490278,-0.028475,0.172768,-0.355497,0.13457,34.529419,33.163147,-16.412292,,,,,,,
1532483326,1.536711,-0.508503,-2.41895,1.059271,0.576235,0.31742,0.872967,0.48687,-0.029767,0.082676,-0.390831,0.114926,34.835876,32.690063,-16.86377,,,,,,,
1532483326,1.537274,-0.496876,-2.445243,1.238161,0.70777,0.664967,0.878582,0.476682,-0.029464,0.071842,-0.331266,0.125426,35.428101,32.301361,-17.409546,,,,,,,
1532483326,1.539521,-0.479974,-2.474093,1.323509,0.842948,0.88534,0.886573,0.461756,-0.027737,0.087182,-0.249095,0.123409,36.249939,31.176086,-17.458374,,,,,,,
1532483326,1.545938,-0.459,-2.501782,1.201349,1.011859,1.097134,0.896219,0.443051,-0.022283,0.104086,-0.183316,0.078618,36.790894,29.891144,-17.575989,,,,,,,
1532483326,1.557585,-0.434703,-2.523836,0.895023,1.068049,1.253147,0.906916,0.421141,-0.011982,0.137884,-0.101179,0.004521,37.845947,28.908386,-17.633362,,,,,,,
1532483326,1.571487,-0.408727,-2.53814,0.515867,0.91827,1.324932,0.917627,0.397442,0.000634,0.1677,-0.016262,-0.070153,38.987671,27.497711,-17.147461,,,,,,,
1532483326,1.584001,-0.381497,-2.54447,0.141023,0.638773,1.400395,0.928027,0.37231,0.012255,0.151379,0.036946,-0.131563,39.899414,26.481598,-17.064514,,,,,,,
1532483326,1.593169,-0.352476,-2.544066,-0.146743,0.358287,1.489004,0.938286,0.345222,0.020996,0.060371,0.032295,-0.147323,41.075378,25.543457,-16.638,,,,,,,
1532483326,1.599602,-0.32219,-2.540208,-0.24311,0.213371,1.526083,0.948151,0.316644,0.02732,-0.028,0.04241,-0.13584,41.920959,24.319641,-16.340942,,,,,,,
1532483326,1.604275,-0.291761,-2.537381,-0.132056,0.189171,1.509692,0.957202,0.287639,0.032058,-0.091235,0.072178,-0.104201,42.778137,23.027222,-16.28479,,,,,,,
1532483326,1.609671,-0.263066,-2.538369,0.068929,0.352679,1.397767,0.964868,0.260043,0.037528,-0.09736,0.117323,-0.073798,43.766296,21.829163,-16.016907,,,,,,,
1532483326,1.617119,-0.236503,-2.543661,0.26711,0.475601,1.32499,0.97112,0.234304,0.045017,-0.090063,0.154261,-0.062489,44.550598,20.78363,-15.814575,,,,,,,
1532483326,1.625225,-0.211003,-2.551953,0.362595,0.514224,1.283103,0.976374,0.209441,0.053195,-0.094553,0.171755,-0.083331,44.88147,19.320648,-15.416687,,,,,,,
1532483326,1.634183,-0.186604,-2.560864,0.359228,0.546353,1.232098,0.980666,0.185523,0.062245,-0.09674,0.180505,-0.113209,45.574036,17.870544,-15.154968,,,,,,,
1532483326,1.644009,-0.164043,-2.569156,0.303023,0.56496,1.100293,0.983932,0.163309,0.072165,-0.074401,0.199988,-0.129828,46.18103,16.911499,-14.798828,,,,,,,
1532483326,1.652632,-0.145014,-2.57612,0.234116,0.442416,0.912198,0.986192,0.144507,0.080887,-0.053254,0.234751,-0.14798,46.827209,16.01535,-14.388855,,,,,,,
1532483326,1.659002,-0.128454,-2.58067,0.10615,0.269386,0.813384,0.987905,0.128101,0.087365,-0.070303,0.211346,-0.164025,47.024536,15.031555,-14.152161,,,,,,,
1532483326,1.662057,-0.113306,-2.583005,0.003201,0.130281,0.742838,0.989453,0.113063,0.09055,-0.069119,0.198185,-0.172962,47.385193,14.286407,-14.141235,,,,,,,
1532483326,1.66385,-0.099629,-2.583436,-0.062018,0.051975,0.643405,0.990736,0.099464,0.092458,-0.071028,0.191795,-0.144705,47.314026,13.65097,-13.779968,,,,,,,
1532483326,1.663129,-0.088955,-2.583185,-0.069429,-0.074797,0.470147,0.991803,0.088838,0.091837,-0.033628,0.257933,-0.150477,47.538025,13.171112,-13.694214,,,,,,,
1532483326,1.6623,-0.080957,-2.582864,-0.043224,-0.012629,0.371865,0.992555,0.080869,0.091077,-0.035783,0.253207,-0.115628,47.72522,13.041138,-13.872253,,,,,,,
1532483326,1.663368,-0.074551,-2.58314,-0.012096,0.102613,0.293097,0.992952,0.074482,0.092183,-0.030077,0.254009,-0.085439,47.992981,12.510254,-13.923279,,,,,,,
1532483326,1.664582,-0.068829,-2.584161,0.03362,0.044179,0.299947,0.993248,0.068774,0.093426,-0.018363,0.275906,-0.086529,47.992981,12.510254,-13.923279,,,,,,,
1532483326,1.665141,-0.064035,-2.584829,-0.022312,0.028552,0.213761,0.993512,0.063991,0.094011,-0.006253,0.308582,-0.103365,48.006714,12.40564,-13.790344,,,,,,,
1532483326,1.66475,-0.062411,-2.583544,-0.115424,-0.062057,0.00839,0.993651,0.06237,0.093633,0.08867,0.39457,-0.116597,48.069153,12.098816,-13.691223,,,,,,,
,,,,,,,,,,,,,,,,42.473833,-83.404933,243.542874,0.318854,45.141574,1532483326,
1532483326,1.662286,-0.066464,-2.579037,-0.273384,-0.189123,-0.378186,0.993619,0.066415,0.091161,0.152164,0.477545,-0.105886,48.165894,12.20459,-13.719727,,,,,,,
1532483326,1.658382,-0.07902,-2.570735,-0.411077,-0.233985,-0.830033,0.993058,0.078938,0.087201,0.14926,0.438778,-0.101682,48.334656,12.695862,-13.654724,,,,,,,
1532483326,1.653782,-0.098787,-2.559705,-0.495977,-0.329417,-1.136449,0.9917,0.098627,0.082487,0.095947,0.334006,-0.095701,47.934937,13.179047,-13.774536,,,,,,,
1532483326,1.645962,-0.122602,-2.548038,-0.464257,-0.546587,-1.290349,0.989691,0.122295,0.074532,0.000284,0.193928,-0.069542,47.5354,14.221191,-14.185852,,,,,,,
1532483326,1.634763,-0.148775,-2.539591,-0.225485,-0.637317,-1.359271,0.986931,0.148227,0.063217,-0.128593,0.040158,0.0009,47.135315,15.461365,-14.243652,,,,,,,
1532483326,1.623786,-0.175134,-2.538866,0.209554,-0.473263,-1.283119,0.983321,0.17424,0.052155,-0.203704,-0.087997,0.082946,46.421753,16.855194,-14.662048,,,,,,,
1532483326,1.616173,-0.198474,-2.548145,0.684485,-0.190754,-1.063028,0.979359,0.197174,0.04447,-0.212849,-0.138199,0.152551,46.005127,17.917511,-15.174866,,,,,,,
1532483326,1.611961,-0.21805,-2.565762,1.005835,0.069399,-0.887112,0.975494,0.216326,0.040178,-0.167571,-0.122973,0.186827,45.474304,19.013824,-15.687012,,,,,,,
1532483326,1.61177,-0.235169,-2.586592,1.029099,0.3198,-0.7726,0.971658,0.233007,0.039835,-0.088663,-0.085439,0.15032,45.347473,19.669281,-15.905212,,,,,,,
1532483326,1.615105,-0.24949,-2.60356,0.719884,0.357989,-0.632698,0.968087,0.24691,0.042923,0.028495,-0.022407,0.059677,44.808899,20.127289,-16.202087,,,,,,,
1532483326,1.618335,-0.260788,-2.611918,0.244898,0.191824,-0.500818,0.965095,0.257842,0.045914,0.147744,0.067109,-0.028519,44.611877,20.501068,-16.015015,,,,,,,
1532483326,1.618092,-0.269585,-2.611217,-0.151357,-0.15686,-0.415408,0.962803,0.266331,0.045571,0.185284,0.112468,-0.079552,44.58075,21.044464,-16.108643,,,,,,,
1532483326,1.613517,-0.277102,-2.605481,-0.292358,-0.376262,-0.37944,0.960974,0.27357,0.041079,0.129038,0.074682,-0.062273,44.685486,21.678436,-16.085571,,,,,,,
1532483326,1.606646,-0.284035,-2.599957,-0.218337,-0.440086,-0.34766,0.959315,0.280231,0.034406,0.043722,0.011746,-0.022717,44.280518,21.84375,-16.136536,,,,,,,
1532483326,1.598612,-0.290574,-2.597319,-0.04937,-0.426081,-0.329893,0.957708,0.286502,0.026647,-0.040792,-0.037662,0.030849,43.880249,22.3927,-16.318176,,,,,,,
1532483326,1.591127,-0.297425,-2.599142,0.180958,-0.29164,-0.355231,0.955896,0.293059,0.019437,-0.073053,-0.063293,0.070239,43.580383,22.843079,-16.650146,,,,,,,
1532483326,1.585418,-0.305022,-2.606028,0.427405,-0.116726,-0.390746,0.953738,0.300314,0.013947,-0.080462,-0.075766,0.093613,43.273132,22.970947,-17.04364,,,,,,,
1532483326,1.581811,-0.312981,-2.617716,0.634884,0.069661,-0.391709,0.951362,0.307897,0.010479,-0.064079,-0.088399,0.096348,43.164673,23.341217,-17.216858,,,,,,,
1532483327,1.58047,-0.32111,-2.632871,0.769216,0.223051,-0.408952,0.948841,0.31562,0.009179,-0.051457,-0.106956,0.096549,43.056458,23.279205,-17.484741,,,,,,,
1532483327,1.580856,-0.32913,-2.649702,0.814415,0.29847,-0.380142,0.946276,0.32322,0.00952,-0.024218,-0.120538,0.070711,42.902344,23.197845,-17.775879,,,,,,,
1532483327,1.580855,-0.336264,-2.66675,0.802303,0.279204,-0.357013,0.943946,0.329962,0.009495,0.004494,-0.135596,0.046855,42.759766,23.351471,-17.720886,,,,,,,
1532483327,1.58154,-0.344714,-2.682978,0.753217,0.305178,-0.470562,0.941118,0.337927,0.010111,0.033858,-0.132468,0.05187,42.825134,23.264679,-17.817078,,,,,,,
1532483327,1.581273,-0.355484,-2.698606,0.7379,0.237549,-0.562729,0.937427,0.348044,0.009821,0.03877,-0.149283,0.040701,42.47821,23.47171,-17.983643,,,,,,,
1532483327,1.580401,-0.366476,-2.714922,0.80333,0.249195,-0.530711,0.933553,0.358328,0.008967,0.043101,-0.196859,0.055135,42.258789,23.748627,-18.085815,,,,,,,
1532483327,1.57961,-0.37639,-2.733083,0.873771,0.322445,-0.484458,0.929961,0.367566,0.008197,0.034974,-0.235013,0.061444,42.402161,24.039429,-18.266724,,,,,,,
1532483327,1.579766,-0.385903,-2.751881,0.87666,0.376606,-0.470296,0.926422,0.376396,0.00831,0.040055,-0.237098,0.057379,42.092102,24.284485,-18.386414,,,,,,,
1532483327,1.581084,-0.394636,-2.770529,0.869129,0.447541,-0.410434,0.923087,0.384472,0.009497,0.04551,-0.257184,0.048197,41.791565,24.595398,-18.645874,,,,,,,
1532483327,1.582977,-0.401799,-2.789385,0.882419,0.466282,-0.321742,0.920291,0.391074,0.01121,0.066205,-0.268241,0.022878,41.958801,24.451935,-18.41571,,,,,,,
1532483327,1.585475,-0.407082,-2.808543,0.88481,0.531725,-0.221281,0.918181,0.395931,0.013478,0.09134,-0.266552,0.002604,41.941589,24.2258,-18.568176,,,,,,,
1532483327,1.58995,-0.410269,-2.826823,0.81354,0.595943,-0.11033,0.916845,0.398856,0.017563,0.145976,-0.243888,-0.031433,41.832825,24.260895,-18.549438,,,,,,,
1532483327,1.594664,-0.410871,-2.84266,0.670405,0.518471,0.037056,0.916512,0.399408,0.021879,0.177879,-0.228631,-0.087294,42.299194,24.188385,-18.593994,,,,,,,
1532483327,1.598953,-0.408321,-2.854189,0.431365,0.3866,0.191104,0.917424,0.397069,0.025838,0.192195,-0.224203,-0.138036,42.35968,23.79953,-18.610229,,,,,,,
1532483327,1.602419,-0.402257,-2.859893,0.145965,0.214089,0.379321,0.919719,0.391496,0.029093,0.218022,-0.18535,-0.186854,42.640381,23.170746,-18.388672,,,,,,,
1532483327,1.602871,-0.392003,-2.860616,-0.053678,-0.06901,0.600343,0.92367,0.38204,0.029637,0.249777,-0.114019,-0.227498,43.076599,23.128448,-18.347351,,,,,,,
